Timestamp_ns,Gyro_X,Gyro_Y,Gyro_Z,Acc_X,Acc_Y,Acc_Z,Mag_X,Mag_Y,Mag_Z,Roll,Pitch,Yaw,Pos_X,Pos_Y,Pos_Z,Vel_X,Vel_Y,Vel_Z,Airspeed,Groundspeed,Heading,Throttle,Alt,Climb,Servo1_Raw,Servo2_Raw,Servo3_Raw,Servo4_Raw,Thrust_Vector_X,Thrust_Vector_Y,Thrust_Vector_Z,Thrust_Angle_From_Z
1729765554431111855,-0.0007131296442821622,0.0019922913052141666,-0.0005538135883398354,-0.09599950909614563,0.014972987584769726,-9.76686954498291,0.004773782100528479,-0.21172186732292175,0.4265783429145813,-0.005228634923696518,-0.011520695872604847,1.620328664779663,0.08465705066919327,0.038989413529634476,-0.05078878626227379,0.05536955967545509,0.03903224319219589,0.0012804586440324783,0.0,0.06774440407752991,92,0,488.1419982910156,-0.0012804586440324783,900,900,900,900,0.0,0.0,0.0,1.5707963267948966
1729765554435038479,-0.00044681376311928034,0.002258608117699623,-0.001086447504349053,-0.09719661623239517,0.04011210799217224,-9.769262313842773,0.004773782100528479,-0.21172186732292175,0.4265783429145813,-0.005222468636929989,-0.01150653138756752,1.6203198432922363,0.08469336479902267,0.03898657113313675,-0.05067001283168793,0.05537493899464607,0.039018455892801285,0.0016187477158382535,0.0,0.06774085760116577,92,0,488.1418762207031,-0.0016187477158382535,900,900,900,900,0.0,0.0,0.0,1.5707963267948966
1729765554440178738,8.581783913541585e-05,0.0006607123650610447,0.001843032892793417,-0.06607198715209961,0.041309211403131485,-9.829116821289062,0.004773782100528479,-0.21172186732292175,0.4265783429145813,-0.005226448178291321,-0.011488320305943489,1.6203229427337646,0.08474194258451462,0.03899487480521202,-0.05055328831076622,0.05521036311984062,0.03921861946582794,0.0016035436419770122,0.0,0.06772211194038391,92,0,488.14178466796875,-0.0016035436419770122,900,900,900,900,0.0,0.0,0.0,1.5707963267948966
1729765554447349204,0.00061845185700804,0.0006607114337384701,-0.0021517120767384768,-0.07564879208803177,0.07602514326572418,-9.800386428833008,0.004773782100528479,-0.21172186732292175,0.4265783429145813,-0.005206993315368891,-0.011478601023554802,1.620321273803711,0.0848032683134079,0.039014432579278946,-0.05044103041291237,0.0552762895822525,0.039233896881341934,0.0014714885037392378,0.0,0.06778471171855927,92,0,488.14166259765625,-0.0014714885037392378,900,900,900,900,0.0,0.0,0.0,1.5707963267948966
1729765554460388233,0.0006184480153024197,-0.0009371871128678322,-0.0005538146360777318,-0.07564879208803177,0.050886012613773346,-9.777643203735352,0.004773782100528479,-0.21172186732292175,0.4265783429145813,-0.005203451495617628,-0.011481484398245811,1.62031888961792,0.08487594872713089,0.03904453665018082,-0.05029623210430145,0.05499347671866417,0.039395179599523544,0.0016402271576225758,0.0,0.06764807552099228,92,0,488.1415100097656,-0.0016402271576225758,900,900,900,900,0.0,0.0,0.0,1.5707963267948966
1729765554462506106,-0.0009794451761990786,0.00039439392276108265,-2.1183222997933626e-05,-0.08881691098213196,0.004199079237878323,-9.796796798706055,0.004773782100528479,-0.21172186732292175,0.4265783429145813,-0.00520748645067215,-0.011483167298138142,1.6203253269195557,0.08496032655239105,0.03908524289727211,-0.050154052674770355,0.055119097232818604,0.039461057633161545,0.0018089780351147056,0.0,0.06778857111930847,92,0,488.141357421875,-0.0018089780351147056,900,900,900,900,0.0,0.0,0.0,1.5707963267948966
1729765554467104551,0.00195003068074584,0.002258607652038336,-2.1181185729801655e-05,-0.09480240941047668,0.058068618178367615,-9.796796798706055,0.004773782100528479,-0.21172186732292175,0.4265783429145813,-0.005197872407734394,-0.011463800445199013,1.620322346687317,0.0850575789809227,0.03913576528429985,-0.0500151626765728,0.055085230618715286,0.03947460651397705,0.0018939721630886197,0.0,0.06776892393827438,92,0,488.1412353515625,-0.0018939721630886197,900,900,900,900,0.0,0.0,0.0,1.5707963267948966
1729765554480339447,0.0011510831536725163,-0.00040455441921949387,-2.1185551304370165e-05,-0.09360530227422714,0.04370340704917908,-9.794403076171875,0.004773782100528479,-0.21172186732292175,0.4265783429145813,-0.005177942104637623,-0.011462707072496414,1.620323657989502,0.08516517281532288,0.039196062833070755,-0.04987924173474312,0.05491190403699875,0.03956511616706848,0.002050061710178852,0.0,0.06768098473548889,92,0,488.1410827636719,-0.002050061710178852,900,900,900,900,0.0,0.0,0.0,1.5707963267948966
1729765554488629978,-0.002311025746166706,0.0009270268492400646,-0.0026843443047255278,-0.08522559702396393,0.028141099959611893,-9.76806640625,0.004773782100528479,-0.21172186732292175,0.4265783429145813,-0.00519426679238677,-0.011456552892923355,1.620306372642517,0.08528369665145874,0.03926585614681244,-0.049746107310056686,0.0549321249127388,0.03963916748762131,0.002258579945191741,0.0,0.06774070113897324,92,0,488.1409606933594,-0.002258579945191741,900,900,900,900,0.0,0.0,0.0,1.5707963267948966
1729765554495145514,-0.000713131797965616,-0.0006708698347210884,-2.1180720068514347e-05,-0.1139560267329216,0.020958494395017624,-9.794403076171875,0.006427643354982138,-0.21679465472698212,0.4308273196220398,-0.005202457774430513,-0.011457935906946659,1.6203027963638306,0.08541321754455566,0.03934458643198013,-0.04961454123258591,0.05493193119764328,0.039566610008478165,0.002493062522262335,0.0,0.06769810616970062,92,0,488.1408386230469,-0.002493062522262335,900,900,900,900,0.0,0.0,0.0,1.5707963267948966
1729765554503216591,0.0006184505182318389,0.0006607109680771828,-0.0002874966594390571,-0.10198501497507095,-0.006574829109013081,-9.80756950378418,0.006427643354982138,-0.21679465472698212,0.4308273196220398,-0.0051959496922791,-0.011444530449807644,1.6203004121780396,0.08555497974157333,0.03943159058690071,-0.04948601499199867,0.055206138640642166,0.03959506005048752,0.0024609463289380074,0.0,0.06793737411499023,92,0,488.1407165527344,-0.0024609463289380074,900,900,900,900,0.0,0.0,0.0,1.5707963267948966
1729765554506798592,-0.0028436596039682627,0.0006607107352465391,0.00024513411335647106,-0.10677342861890793,0.08799616247415543,-9.80756950378418,0.008386624045670033,-0.21732434630393982,0.4297232925891876,-0.005213107913732529,-0.011433354578912258,1.6203025579452515,0.08570743352174759,0.03952690586447716,-0.04936034977436066,0.05491495132446289,0.03953513503074646,0.0024437524843961,0.0,0.0676659345626831,92,0,488.14056396484375,-0.0024437524843961,900,900,900,900,0.0,0.0,0.0,1.5707963267948966
1729765554517984317,0.0011510836193338037,-0.002268767450004816,-0.0013527581468224525,-0.10916762799024582,0.03532370179891586,-9.80278205871582,0.008386624045670033,-0.21732434630393982,0.4297232925891876,-0.005214350298047066,-0.011444696225225925,1.6202962398529053,0.08586819469928741,0.039630163460969925,-0.04923839494585991,0.05481862276792526,0.0395219586789608,0.0024367221631109715,0.0,0.06758007407188416,92,0,488.14044189453125,-0.0024367221631109715,900,900,900,900,0.0,0.0,0.0,1.5707963267948966
1729765554526730156,8.581748261349276e-05,-0.0009371861815452576,-0.0010864498326554894,-0.12832123041152954,-0.013757433742284775,-9.803979873657227,0.008386624045670033,-0.21732434630393982,0.4297232925891876,-0.0052050394006073475,-0.011457209475338459,1.6202869415283203,0.08603956550359726,0.039740316569805145,-0.049119237810373306,0.05507570505142212,0.03930874541401863,0.002543072681874037,0.0,0.06766469031572342,92,0,488.1403503417969,-0.002543072681874037,900,900,900,900,0.0,0.0,0.0,1.5707963267948966
1729765554534657127,-0.0009794471552595496,-0.0014698170125484467,0.0005114514497108757,-0.07684589177370071,0.020958490669727325,-9.801583290100098,0.008386624045670033,-0.21732434630393982,0.4297232925891876,-0.005215165670961142,-0.011463341303169727,1.6202903985977173,0.08622343093156815,0.03985752537846565,-0.04900320991873741,0.05533783510327339,0.039397597312927246,0.00255160266533494,0.0,0.0679297223687172,92,0,488.1402282714844,-0.00255160266533494,900,900,900,900,0.0,0.0,0.0,1.5707963267948966
1729765554542581148,0.0006184517405927181,-0.001469817478209734,-0.0010864452924579382,-0.11515312641859055,0.03771790489554405,-9.815949440002441,0.008386624045670033,-0.21732434630393982,0.4297232925891876,-0.00521358847618103,-0.011477035470306873,1.620286464691162,0.08641757816076279,0.0399833619594574,-0.04889026656746864,0.05532859265804291,0.03944370523095131,0.0025384065229445696,0.0,0.06794894486665726,92,0,488.1401062011719,-0.0025384065229445696,900,900,900,900,0.0,0.0,0.0,1.5707963267948966
1729765554550451542,0.0006184468511492014,-0.002268767450004816,0.0013103976380079985,-0.10198501497507095,0.020958490669727325,-9.788415908813477,0.008386624045670033,-0.21732434630393982,0.4297232925891876,-0.005206878297030926,-0.011497121304273605,1.62029230594635,0.08662142604589462,0.040116067975759506,-0.04878034442663193,0.055437956005334854,0.03938359022140503,0.0026434464380145073,0.0,0.06800319254398346,92,0,488.1399841308594,-0.0026434464380145073,900,900,900,900,0.0,0.0,0.0,1.5707963267948966
1729765554558495474,-0.0031099715270102024,-0.004931931849569082,0.002375660464167595,-0.07325459271669388,0.041309211403131485,-9.763277053833008,0.008386624045670033,-0.21732434630393982,0.4297232925891876,-0.0052238525822758675,-0.01152355782687664,1.620314121246338,0.08683452010154724,0.04025636613368988,-0.04867175221443176,0.05536738038063049,0.03954658657312393,0.0029697963036596775,0.0,0.06804027408361435,92,0,488.139892578125,-0.0029697963036596775,900,900,900,900,0.0,0.0,0.0,1.5707963267948966
1729765554566417900,-0.00284366263076663,-0.002002449706196785,0.001576713752001524,-0.10557632148265839,0.025746896862983704,-9.793205261230469,0.008386624045670033,-0.21732434630393982,0.4297232925891876,-0.005251422058790922,-0.01155327633023262,1.620326280593872,0.08705659210681915,0.04040508344769478,-0.04856378585100174,0.05545530095696449,0.039647601544857025,0.0031756586395204067,0.0,0.06817054003477097,92,0,488.1397705078125,-0.0031756586395204067,900,900,900,900,0.0,0.0,0.0,1.5707963267948966
1729765554577313554,-0.00044681387953460217,0.00039439601823687553,0.0021093483082950115,-0.10557632148265839,0.04250631108880043,-9.805176734924316,0.008386624045670033,-0.21732434630393982,0.4297232925891876,-0.00526103051379323,-0.011552075855433941,1.6203479766845703,0.0872880294919014,0.04056048020720482,-0.048455800861120224,0.05549980700016022,0.0395890437066555,0.003149519208818674,0.0,0.06817273050546646,92,0,488.1396789550781,-0.003149519208818674,900,900,900,900,0.0,0.0,0.0,1.5707963267948966
1729765554586275857,-0.0004468122497200966,0.00012807920575141907,-0.0018853964284062386,-0.055298082530498505,0.03532370179891586,-9.748912811279297,0.008386624045670033,-0.21732434630393982,0.4297232925891876,-0.005259694065898657,-0.011549974791705608,1.6203418970108032,0.08752773702144623,0.04072357714176178,-0.04834924638271332,0.055468764156103134,0.039921995252370834,0.003557951422408223,0.0,0.06834141910076141,92,0,488.1395568847656,-0.003557951422408223,900,900,900,900,0.0,0.0,0.0,1.5707963267948966
1729765554588767688,8.581677684560418e-05,0.0009270268492400646,-0.0010864448267966509,-0.11036472767591476,0.0018048761412501335,-9.751304626464844,0.008386624045670033,-0.21732434630393982,0.4297232925891876,-0.005267886444926262,-0.011540465988218784,1.6203277111053467,0.08777682483196259,0.04089507833123207,-0.04824168235063553,0.05577119439840317,0.03998942673206329,0.004055132623761892,0.0,0.06862638145685196,92,0,488.13946533203125,-0.004055132623761892,900,900,900,900,0.0,0.0,0.0,1.5707963267948966
1729765554598833587,0.0027489764615893364,-0.0004045553505420685,0.0023756632581353188,-0.08642270416021347,0.05687151849269867,-9.774051666259766,0.008386624045670033,-0.21732434630393982,0.4297232925891876,-0.005245475098490715,-0.01154468022286892,1.620337963104248,0.08803451806306839,0.041073065251111984,-0.04813370108604431,0.05561675876379013,0.0400533527135849,0.0043579041957855225,0.0,0.06853827834129333,92,0,488.13934326171875,-0.0043579041957855225,900,900,900,900,0.0,0.0,0.0,1.5707963267948966
1729765554606939334,8.58193525345996e-05,0.00012807920575141907,0.0026419798377901316,-0.08043720573186874,0.024549800902605057,-9.775249481201172,0.008386624045670033,-0.21732434630393982,0.4297232925891876,-0.005246709566563368,-0.011546672321856022,1.6203662157058716,0.08829972892999649,0.04125858470797539,-0.048026300966739655,0.05570213869214058,0.04028100147843361,0.004605621565133333,0.0,0.06874072551727295,92,0,488.1392517089844,-0.004605621565133333,900,900,900,900,0.0,0.0,0.0,1.5707963267948966
1729765554614361629,0.0019500310299918056,-0.00013823877088725567,0.0013103962410241365,-0.07445169985294342,0.058068618178367615,-9.740531921386719,0.008386624045670033,-0.21732434630393982,0.4297232925891876,-0.005227453075349331,-0.011541315354406834,1.6203731298446655,0.08787190914154053,0.0409075990319252,-0.04789073020219803,0.05535389110445976,0.040267955511808395,0.005077164154499769,0.0,0.0684511661529541,92,0,488.13909912109375,-0.005077164154499769,900,900,900,900,0.0,0.0,0.0,1.5707963267948966
1729765554622550617,0.0003521351027302444,-0.00040455395355820656,-0.00028749770717695355,-0.08522559702396393,0.0030019786208868027,-9.803979873657227,0.008386624045670033,-0.21732434630393982,0.4297232925891876,-0.00521044759079814,-0.011550918221473694,1.6203795671463013,0.08746597915887833,0.04057592153549194,-0.047755368053913116,0.055021364241838455,0.04019048064947128,0.005326476879417896,0.0,0.06813681125640869,92,0,488.13897705078125,-0.005326476879417896,900,900,900,900,0.0,0.0,0.0,1.5707963267948966
1729765554632138741,0.0014173979870975018,0.0006607105024158955,-2.1180661860853434e-05,-0.1139560267329216,0.0604628250002861,-9.803979873657227,0.008386624045670033,-0.21732434630393982,0.4297232925891876,-0.005193662829697132,-0.011539233848452568,1.620375394821167,0.08708321303129196,0.04026276245713234,-0.04763449728488922,0.054941460490226746,0.04009774327278137,0.005338737275451422,0.0,0.06801759451627731,92,0,488.13885498046875,-0.005338737275451422,900,900,900,900,0.0,0.0,0.0,1.5707963267948966
1729765554638951925,0.001417397754266858,0.0003943941555917263,0.0010440824553370476,-0.11754733324050903,0.0604628250002861,-9.792008399963379,0.006009901873767376,-0.21648435294628143,0.42876964807510376,-0.005182667635381222,-0.011533889919519424,1.6203792095184326,0.08672194182872772,0.03996653109788895,-0.04751640185713768,0.05449811369180679,0.03979670628905296,0.0053992304019629955,0.0,0.06748201698064804,92,0,488.13873291015625,-0.0053992304019629955,900,900,900,900,0.0,0.0,0.0,1.5707963267948966
1729765554646320654,0.00035213748924434185,-0.0017361342906951904,-0.0018853929359465837,-0.10557632148265839,0.03412660211324692,-9.792008399963379,0.00494976993650198,-0.21820662915706635,0.42700955271720886,-0.0051743267104029655,-0.01153604406863451,1.62037193775177,0.08638063073158264,0.03968635946512222,-0.04740029573440552,0.054198406636714935,0.0396052822470665,0.005528492387384176,0.0,0.06712708622217178,92,0,488.13861083984375,-0.005528492387384176,900,900,900,900,0.0,0.0,0.0,1.5707963267948966
1729765554654721334,0.00248265964910388,-0.0014698188751935959,-0.0010864476207643747,-0.14747485518455505,0.06884253770112991,-9.78961181640625,0.00494976993650198,-0.21820662915706635,0.42700955271720886,-0.00514026265591383,-0.01154248882085085,1.6203538179397583,0.08605947345495224,0.03942125663161278,-0.04728609323501587,0.053834591060876846,0.03914070874452591,0.005639679729938507,0.0,0.06655943393707275,92,0,488.13848876953125,-0.005639679729938507,900,900,900,900,0.0,0.0,0.0,1.5707963267948966
1729765554662969958,8.58175553730689e-05,0.0003943941555917263,0.0013103978708386421,-0.12233574688434601,0.01976139098405838,-9.80756950378418,0.00494976993650198,-0.21820662915706635,0.42700955271720886,-0.005125659052282572,-0.011534923687577248,1.620363712310791,0.08575752377510071,0.039169277995824814,-0.04717380553483963,0.05365074798464775,0.03871659189462662,0.005689698737114668,0.0,0.06616175174713135,92,0,488.1383972167969,-0.005689698737114668,900,900,900,900,0.0,0.0,0.0,1.5707963267948966
1729765554673981127,8.581823931308463e-05,0.0009270273149013519,0.000511450634803623,-0.11994154751300812,-0.01016613095998764,-9.813556671142578,0.00494976993650198,-0.21820662915706635,0.42700955271720886,-0.005115232430398464,-0.011523094028234482,1.6203691959381104,0.08547624945640564,0.03893150016665459,-0.04706455022096634,0.053707778453826904,0.03847522661089897,0.005594318732619286,0.0,0.0660671517252922,92,0,488.1382751464844,-0.005594318732619286,900,900,900,900,0.0,0.0,0.0,1.5707963267948966
1729765554680679088,0.002748980186879635,0.0006607109680771828,-0.003216974902898073,-0.06966328620910645,0.04490051046013832,-9.795599937438965,0.00494976993650198,-0.21820662915706635,0.42700955271720886,-0.005087431985884905,-0.011507110670208931,1.6203492879867554,0.08521600812673569,0.03870861604809761,-0.04695802181959152,0.05360671505331993,0.0384790301322937,0.005649378057569265,0.0,0.0659872367978096,92,0,488.13818359375,-0.005649378057569265,900,900,900,900,0.0,0.0,0.0,1.5707963267948966
1729765554685619341,0.0027489783242344856,0.0006607095710933208,-0.0008201312157325447,-0.07564879208803177,0.038915008306503296,-9.805176734924316,0.00494976993650198,-0.21820662915706635,0.42700955271720886,-0.005053288768976927,-0.011492131277918816,1.620336651802063,0.0849735215306282,0.038502100855112076,-0.04685352370142937,0.05327768996357918,0.03858260065317154,0.005685241427272558,0.0,0.06578091531991959,92,0,488.1380615234375,-0.005685241427272558,900,900,900,900,0.0,0.0,0.0,1.5707963267948966
1729765554693461373,-0.0009794443612918258,-0.0009371866472065449,-0.001619081012904644,-0.10437922179698944,0.018564291298389435,-9.771656036376953,0.00494976993650198,-0.21820662915706635,0.42700955271720886,-0.00504472479224205,-0.011493084952235222,1.6203285455703735,0.0847492441534996,0.038310807198286057,-0.04674594849348068,0.05323971062898636,0.038474611937999725,0.005898147355765104,0.0,0.06568685173988342,92,0,488.1379699707031,-0.005898147355765104,900,900,900,900,0.0,0.0,0.0,1.5707963267948966
1729765554701543786,-0.0017783973598852754,0.00012807990424335003,-0.0005538154509849846,-0.10557632148265839,0.04729471728205681,-9.825526237487793,0.00494976993650198,-0.21820662915706635,0.42700955271720886,-0.00504458649083972,-0.01148551981896162,1.6203149557113647,0.08454267680644989,0.03813325613737106,-0.046639811247587204,0.05296022444963455,0.03832013159990311,0.005860272794961929,0.0,0.0653698518872261,92,0,488.1378479003906,-0.005860272794961929,900,900,900,900,0.0,0.0,0.0,1.5707963267948966
1729765554709159101,-0.0009794463403522968,-0.00040455395355820656,0.001310399267822504,-0.10437921434640884,0.005396182648837566,-9.80996322631836,0.00494976993650198,-0.21820662915706635,0.42700955271720886,-0.005043113604187965,-0.011479252949357033,1.6203250885009766,0.08435370028018951,0.037969011813402176,-0.04653681814670563,0.05300537496805191,0.03818270191550255,0.0057951402850449085,0.0,0.0653260201215744,92,0,488.13775634765625,-0.0057951402850449085,900,900,900,900,0.0,0.0,0.0,1.5707963267948966
1729765554717276875,-0.0033762881066650152,-0.000670872163027525,-0.002950661350041628,-0.10797052830457687,0.05687151849269867,-9.80637264251709,0.00494976993650198,-0.21820662915706635,0.42700955271720886,-0.0050557334907352924,-0.011478778906166553,1.620310664176941,0.0841822549700737,0.037817880511283875,-0.046436578035354614,0.0527578666806221,0.03804102912545204,0.005757207050919533,0.0,0.0650423914194107,92,0,488.1376647949219,-0.005757207050919533,900,900,900,900,0.0,0.0,0.0,1.5707963267948966
1729765554725144897,-0.0025773481465876102,-0.0020024487748742104,-0.00028749657212756574,-0.08043720573186874,0.04370340704917908,-9.769262313842773,0.00494976993650198,-0.21820662915706635,0.42700955271720886,-0.005067828577011824,-0.011482912115752697,1.6202975511550903,0.08402638137340546,0.03767969831824303,-0.046337906271219254,0.05252224951982498,0.03801773861050606,0.005988711025565863,0.0,0.06483776122331619,92,0,488.1375427246094,-0.005988711025565863,900,900,900,900,0.0,0.0,0.0,1.5707963267948966
1729765554733785664,0.0024826626759022474,-0.0014698156155645847,0.002908298745751381,-0.09959081560373306,0.04490051791071892,-9.784826278686523,0.00494976993650198,-0.21820662915706635,0.42700955271720886,-0.005056119989603758,-0.011487980373203754,1.6203241348266602,0.08388601988554001,0.03755536675453186,-0.046239759773015976,0.052344683557748795,0.03807641938328743,0.006115923635661602,0.0,0.0647285059094429,92,0,488.137451171875,-0.006115923635661602,900,900,900,900,0.0,0.0,0.0,1.5707963267948966
1729765554744762953,0.0011510824551805854,-0.0020024520345032215,0.0034409253858029842,-0.09839371591806412,0.030535299330949783,-9.770459175109863,0.00494976993650198,-0.21820662915706635,0.42700955271720886,-0.005047484766691923,-0.011492956429719925,1.6203383207321167,0.08376117050647736,0.03744404762983322,-0.046142589300870895,0.052184443920850754,0.038001563400030136,0.006342053413391113,0.0,0.06455489993095398,92,0,488.1373596191406,-0.006342053413391113,900,900,900,900,0.0,0.0,0.0,1.5707963267948966
1729765554751538163,-0.004175236914306879,-0.0012035053223371506,-0.0005538182449527085,-0.0924082100391388,-0.012560333125293255,-9.746519088745117,0.00494976993650198,-0.21820662915706635,0.42700955271720886,-0.005062446463853121,-0.011495917104184628,1.620344638824463,0.08365307748317719,0.03734547644853592,-0.0460323765873909,0.05240475758910179,0.038035277277231216,0.006765806581825018,0.0,0.06475292146205902,92,0,488.1372375488281,-0.006765806581825018,900,900,900,900,0.0,0.0,0.0,1.5707963267948966
1729765554759544243,-0.0009794487850740552,0.00039439694955945015,0.0010440850164741278,-0.12233574688434601,0.055674418807029724,-9.76686954498291,0.00494976993650198,-0.21820662915706635,0.42700955271720886,-0.005072568077594042,-0.011489665135741234,1.6203466653823853,0.08356192708015442,0.037258781492710114,-0.04592116177082062,0.05230581387877464,0.037828635424375534,0.007127693388611078,0.0,0.06455156207084656,92,0,488.13714599609375,-0.007127693388611078,900,900,900,900,0.0,0.0,0.0,1.5707963267948966
1729765554767962940,-0.0031099726911634207,-0.0028014015406370163,0.001310395309701562,-0.12353284657001495,0.050886012613773346,-9.80876636505127,0.00494976993650198,-0.21820662915706635,0.42700955271720886,-0.005083385389298201,-0.011503939516842365,1.6203625202178955,0.08348424732685089,0.03718208894133568,-0.04581029713153839,0.05198590084910393,0.037528689950704575,0.007219095714390278,0.0,0.06411658227443695,92,0,488.13702392578125,-0.007219095714390278,900,900,900,900,0.0,0.0,0.0,1.5707963267948966
1729765554775394063,-0.00018049945356324315,0.0006607114337384701,0.0002451364998705685,-0.08043720573186874,-0.036502350121736526,-9.795599937438965,0.009225689806044102,-0.21785204112529755,0.42631474137306213,-0.005089228041470051,-0.01150266919285059,1.620362401008606,0.08342199772596359,0.037116412073373795,-0.04570161551237106,0.052346326410770416,0.03760434314608574,0.007231538183987141,0.0,0.06445327401161194,92,0,488.1369323730469,-0.007231538183987141,900,900,900,900,0.0,0.0,0.0,1.5707963267948966
1729765554784885985,-0.0012457615230232477,0.0019922908395528793,-0.001619079615920782,-0.08163430541753769,0.023352693766355515,-9.764474868774414,0.013647272251546383,-0.21032032370567322,0.4249119162559509,-0.005089196376502514,-0.011482595466077328,1.6203601360321045,0.08337660878896713,0.037063151597976685,-0.04559400677680969,0.052390243858098984,0.037698399275541306,0.007491580210626125,0.0,0.06454383581876755,92,0,488.1368103027344,-0.007491580210626125,900,900,900,900,0.0,0.0,0.0,1.5707963267948966
1729765554791543845,0.0022163467947393656,0.002258606720715761,-0.0010864463401958346,-0.0924082100391388,0.03652080520987511,-9.729759216308594,0.013647272251546383,-0.21032032370567322,0.4249119162559509,-0.005070404149591923,-0.011459737084805965,1.6203471422195435,0.08334565907716751,0.037021905183792114,-0.04548492655158043,0.052320756018161774,0.037747472524642944,0.008090389892458916,0.0,0.06451614946126938,92,0,488.1366882324219,-0.008090389892458916,900,900,900,900,0.0,0.0,0.0,1.5707963267948966
1729765554799981964,-0.00284366006962955,-0.0009371861815452576,-0.0013527637347579002,-0.10797052830457687,0.0018048780038952827,-9.787220001220703,0.013647272251546383,-0.21032032370567322,0.4249119162559509,-0.0050819949246943,-0.011457442305982113,1.6203376054763794,0.08332899957895279,0.03699145466089249,-0.04537409171462059,0.0524536594748497,0.03765587881207466,0.008367414586246014,0.0,0.06457051634788513,92,0,488.1365966796875,-0.008367414586246014,900,900,900,900,0.0,0.0,0.0,1.5707963267948966
1729765554807503815,-0.0007131301099434495,-0.0012035015970468521,-2.118112752214074e-05,-0.07325459271669388,0.04609761759638786,-9.80637264251709,0.013647272251546383,-0.21032032370567322,0.4249119162559509,-0.0050867460668087006,-0.011468200944364071,1.6203373670578003,0.08332684636116028,0.036971550434827805,-0.04526447877287865,0.052395254373550415,0.03773120790719986,0.008348423056304455,0.0,0.06456707417964935,92,0,488.136474609375,-0.008348423056304455,900,900,900,900,0.0,0.0,0.0,1.5707963267948966
1729765554811749867,-0.00044681550934910774,0.002524923998862505,0.002641979604959488,-0.11275891959667206,0.02694399654865265,-9.782430648803711,0.013647272251546383,-0.21032032370567322,0.4249119162559509,-0.005086766555905342,-0.011447247117757797,1.6203489303588867,0.08333669602870941,0.03696291521191597,-0.0451691597700119,0.05221681296825409,0.03772475942969322,0.00853025447577238,0.0,0.06441857665777206,92,0,488.1363830566406,-0.00853025447577238,900,900,900,900,0.0,0.0,0.0,1.5707963267948966
1729765554822854212,-0.00018049587379209697,0.00039439438842236996,-0.0008201304590329528,-0.10437922179698944,0.04490051791071892,-9.764474868774414,0.013647272251546383,-0.21032032370567322,0.4249119162559509,-0.0050849709659814835,-0.01144048199057579,1.6203497648239136,0.08335975557565689,0.03696368634700775,-0.04507363215088844,0.052227266132831573,0.037600502371788025,0.008802354335784912,0.0,0.06435437500476837,92,0,488.13629150390625,-0.008802354335784912,900,900,900,900,0.0,0.0,0.0,1.5707963267948966
1729765554833055545,-0.0007131295860745013,0.0003943946212530136,-0.0018853952642530203,-0.10557632148265839,0.018564291298389435,-9.76567268371582,0.013647272251546383,-0.21032032370567322,0.4249119162559509,-0.005085556302219629,-0.011434059590101242,1.6203367710113525,0.08339514583349228,0.0369737446308136,-0.04497699439525604,0.052202846854925156,0.03752051666378975,0.009136991575360298,0.0,0.06428784132003784,92,0,488.1361999511719,-0.009136991575360298,900,900,900,900,0.0,0.0,0.0,1.5707963267948966
1729765554839244605,-0.0009794493671506643,0.00012808013707399368,0.002375664422288537,-0.07564879208803177,0.024549800902605057,-9.778839111328125,0.013647272251546383,-0.21032032370567322,0.4249119162559509,-0.00509313540533185,-0.011428856290876865,1.6203429698944092,0.08344382047653198,0.03699379786849022,-0.04487936198711395,0.052313290536403656,0.03766259923577309,0.009393333457410336,0.0,0.06446046382188797,92,0,488.1361083984375,-0.009393333457410336,900,900,900,900,0.0,0.0,0.0,1.5707963267948966
1729765554846805499,-0.0012457623379305005,0.003323871409520507,-0.0008201315067708492,-0.11156181991100311,0.038915008306503296,-9.799189567565918,0.013647272251546383,-0.21032032370567322,0.4249119162559509,-0.005100995302200317,-0.011410072445869446,1.62034273147583,0.08350419253110886,0.03702396899461746,-0.044781867414712906,0.0521480031311512,0.0376138798892498,0.009459362365305424,0.0,0.0642978847026825,92,0,488.135986328125,-0.009459362365305424,900,900,900,900,0.0,0.0,0.0,1.5707963267948966
1729765554854557851,-0.0004468148108571768,0.0001280789729207754,-0.0005538151017390192,-0.07205750048160553,0.02814110368490219,-9.792008399963379,0.013647272251546383,-0.21032032370567322,0.4249119162559509,-0.005099456291645765,-0.011402088217437267,1.6203311681747437,0.08357609063386917,0.03706272318959236,-0.044684916734695435,0.05215688422322273,0.037542007863521576,0.009597665630280972,0.0,0.06426307559013367,92,0,488.1358947753906,-0.009597665630280972,900,900,900,900,0.0,0.0,0.0,1.5707963267948966
1729765554864260815,0.001151082688011229,0.001193343661725521,0.00024513492826372385,-0.06367779523134232,0.018564291298389435,-9.747715950012207,0.013647272251546383,-0.21032032370567322,0.4249119162559509,-0.005099434871226549,-0.011393443681299686,1.6203304529190063,0.08365962654352188,0.03711124137043953,-0.04458806663751602,0.05209703370928764,0.03780009597539902,0.009801660664379597,0.0,0.06436573714017868,92,0,488.13580322265625,-0.009801660664379597,900,900,900,900,0.0,0.0,0.0,1.5707963267948966
1729765554872526047,0.00221634772606194,0.00012807920575141907,0.00024513457901775837,-0.08642270416021347,0.010184583254158497,-9.774051666259766,0.013647272251546383,-0.21032032370567322,0.4249119162559509,-0.005084768403321505,-0.011386989615857601,1.620324730873108,0.08375458419322968,0.037170685827732086,-0.04449201375246048,0.052216820418834686,0.03799135610461235,0.010163076221942902,0.0,0.06457506865262985,92,0,488.1357116699219,-0.010163076221942902,900,900,900,900,0.0,0.0,0.0,1.5707963267948966
1729765554879116846,8.581850124755874e-05,-0.00013823737390339375,-0.0013527635019272566,-0.0792401060461998,0.012578786350786686,-9.813556671142578,0.013647272251546383,-0.21032032370567322,0.4249119162559509,-0.00508088106289506,-0.01138395071029663,1.620308518409729,0.08386174589395523,0.037239622324705124,-0.04439614340662956,0.05235261097550392,0.038090720772743225,0.010102007538080215,0.0,0.06474333256483078,92,0,488.1356201171875,-0.010102007538080215,900,900,900,900,0.0,0.0,0.0,1.5707963267948966
1729765554888581835,0.0006184489466249943,-0.0012035020627081394,0.00024513324024155736,-0.08522559702396393,0.04250631108880043,-9.777643203735352,0.013647272251546383,-0.21032032370567322,0.4249119162559509,-0.005073040723800659,-0.011393804103136063,1.6202996969223022,0.08398012071847916,0.03731819987297058,-0.044301167130470276,0.052292775362730026,0.03823944926261902,0.010256067849695683,0.0,0.06478263437747955,92,0,488.1355285644531,-0.010256067849695683,900,900,900,900,0.0,0.0,0.0,1.5707963267948966
1729765554894130003,-0.0017783957300707698,0.0017259742598980665,0.002109345979988575,-0.08522559702396393,0.01138168666511774,-9.783628463745117,0.013647272251546383,-0.21032032370567322,0.4249119162559509,-0.005081582348793745,-0.011382388882339,1.6203092336654663,0.0841086134314537,0.03740581125020981,-0.044205497950315475,0.05231720209121704,0.0383320227265358,0.010486423037946224,0.0,0.06485702097415924,92,0,488.13543701171875,-0.010486423037946224,900,900,900,900,0.0,0.0,0.0,1.5707963267948966
1729765554904145056,0.0006184510421007872,0.0019922908395528793,-0.0016190772876143456,-0.08881690353155136,0.07003964483737946,-9.797992706298828,0.013647272251546383,-0.21032032370567322,0.4249119162559509,-0.00508572394028306,-0.011371233500540257,1.6202908754348755,0.08424835652112961,0.0375024676322937,-0.044109780341386795,0.052312787622213364,0.03845615312457085,0.010554147884249687,0.0,0.06492690742015839,92,0,488.13531494140625,-0.010554147884249687,900,900,900,900,0.0,0.0,0.0,1.5707963267948966
1729765554909813519,0.0006184507510624826,-0.0004045548848807812,0.001843028236180544,-0.10437921434640884,0.04490051791071892,-9.790809631347656,0.013647272251546383,-0.21032032370567322,0.4249119162559509,-0.00507426867261529,-0.011363271623849869,1.6202929019927979,0.08439613878726959,0.03760719671845436,-0.0440143384039402,0.05204644799232483,0.038420163094997406,0.01067625917494297,0.0,0.06469112634658813,92,0,488.1352233886719,-0.01067625917494297,900,900,900,900,0.0,0.0,0.0,1.5707963267948966
1729765554919423688,-0.0007131291786208749,0.0003943941555917263,-0.0002874986967071891,-0.1139560267329216,-0.0005893241614103317,-9.771656036376953,0.007905228063464165,-0.21508605778217316,0.42867550253868103,-0.005079919006675482,-0.011367144994437695,1.620288610458374,0.0845538005232811,0.0377192497253418,-0.04391875118017197,0.052269697189331055,0.03836303576827049,0.010876907967031002,0.0,0.06483705341815948,92,0,488.1351318359375,-0.010876907967031002,900,900,900,900,0.0,0.0,0.0,1.5707963267948966
1729765554928289737,-0.000979446922428906,0.003856504801660776,0.00024513364769518375,-0.1139560267329216,0.04609761759638786,-9.771656036376953,0.005646836012601852,-0.22218187153339386,0.42594361305236816,-0.005087762139737606,-0.01134128961712122,1.6202800273895264,0.08472231775522232,0.03783787041902542,-0.04382181167602539,0.05228511616587639,0.03823340684175491,0.011195464059710503,0.0,0.06477288901805878,92,0,488.1350402832031,-0.011195464059710503,900,900,900,900,0.0,0.0,0.0,1.5707963267948966
1729765554935624202,8.581847214372829e-05,0.005720718763768673,0.0021093464456498623,-0.11156181991100311,0.02694399654865265,-9.78961181640625,0.005646836012601852,-0.22218187153339386,0.42594361305236816,-0.005091632716357708,-0.011294106021523476,1.6202884912490845,0.08489985018968582,0.03796308860182762,-0.043708138167858124,0.05227839946746826,0.03818095475435257,0.011332240886986256,0.0,0.0647365152835846,92,0,488.1349182128906,-0.011332240886986256,900,900,900,900,0.0,0.0,0.0,1.5707963267948966
1729765554942653626,-0.000180497532710433,0.0025249235332012177,-0.0002874984929803759,-0.10198501497507095,0.016170088201761246,-9.799189567565918,0.005646836012601852,-0.22218187153339386,0.42594361305236816,-0.00508904829621315,-0.011270481161773205,1.6202830076217651,0.08508770167827606,0.038094669580459595,-0.043595001101493835,0.052511878311634064,0.03810810670256615,0.0113932304084301,0.0,0.06488239765167236,92,0,488.13482666015625,-0.0113932304084301,900,900,900,900,0.0,0.0,0.0,1.5707963267948966
1729765554950041080,0.0003521330945659429,0.0011933434288948774,0.0002451342879794538,-0.07804299890995026,0.041309211403131485,-9.757292747497559,0.005646836012601852,-0.22218187153339386,0.42594361305236816,-0.005087509285658598,-0.011258653365075588,1.6202703714370728,0.08528453856706619,0.038233622908592224,-0.04348158836364746,0.052381228655576706,0.038274385035037994,0.01174729224294424,0.0,0.06487466394901276,92,0,488.13470458984375,-0.01174729224294424,900,900,900,900,0.0,0.0,0.0,1.5707963267948966
1729765554957649142,-0.004175241105258465,0.0035901854280382395,0.0010440810583531857,-0.11994154751300812,0.01377588976174593,-9.812358856201172,0.005646836012601852,-0.22218187153339386,0.42594361305236816,-0.005113921593874693,-0.011233982630074024,1.6202762126922607,0.08549043536186218,0.03837994858622551,-0.04336758330464363,0.05257508531212807,0.038221586495637894,0.011788913980126381,0.0,0.06500022113323212,92,0,488.13458251953125,-0.011788913980126381,900,900,900,900,0.0,0.0,0.0,1.5707963267948966
1729765554965977587,-0.0028436596039682627,0.0019922892097383738,-0.0026843417435884476,-0.10677342861890793,0.03532370179891586,-9.800386428833008,0.005646836012601852,-0.22218187153339386,0.42594361305236816,-0.00514216860756278,-0.011213752441108227,1.6202523708343506,0.08570603281259537,0.03853197395801544,-0.04325494170188904,0.0526622049510479,0.03813117370009422,0.011781588196754456,0.0,0.06501764804124832,92,0,488.13446044921875,-0.011781588196754456,900,900,900,900,0.0,0.0,0.0,1.5707963267948966
1729765554973299075,0.00035212913644500077,-0.0012035011313855648,0.0023756646551191807,-0.09719661623239517,0.0065932804718613625,-9.800386428833008,0.005646836012601852,-0.22218187153339386,0.42594361305236816,-0.0051429616287350655,-0.011217937804758549,1.6202484369277954,0.085930734872818,0.038690488785505295,-0.04314306750893593,0.05285501107573509,0.0382104218006134,0.011853181757032871,0.0,0.06522031128406525,92,0,488.1343688964844,-0.011853181757032871,900,900,900,900,0.0,0.0,0.0,1.5707963267948966
1729765554981631000,0.0008847684366628528,0.000660712132230401,0.0018430319614708424,-0.11754733324050903,0.012578784488141537,-9.769262313842773,0.005646836012601852,-0.22218187153339386,0.42594361305236816,-0.005139762535691261,-0.011215627193450928,1.6202670335769653,0.08616545796394348,0.038854945451021194,-0.04303137958049774,0.0531134158372879,0.038082826882600784,0.012071017175912857,0.0,0.06535546481609344,92,0,488.1342468261719,-0.012071017175912857,900,900,900,900,0.0,0.0,0.0,1.5707963267948966
1729765554989473060,-0.0017783943330869079,-0.0022687665186822414,-0.0021517144050449133,-0.10198501497507095,0.055674418807029724,-9.75010871887207,0.005646836012601852,-0.22218187153339386,0.42594361305236816,-0.005145716480910778,-0.011227372102439404,1.6202468872070312,0.08640840649604797,0.03902474045753479,-0.042926765978336334,0.05297689512372017,0.03804170340299606,0.01248675025999546,0.0,0.06522057205438614,92,0,488.1341552734375,-0.01248675025999546,900,900,900,900,0.0,0.0,0.0,1.5707963267948966
1729765555000307518,0.0006184490630403161,-0.0009371871128678322,-0.0016190768219530582,-0.09959081560373306,0.02215559408068657,-9.758489608764648,0.005646836012601852,-0.22218187153339386,0.42594361305236816,-0.00514631113037467,-0.011239133775234222,1.6202239990234375,0.08665873110294342,0.03920049965381622,-0.04281958192586899,0.05307049676775932,0.03807775676250458,0.012894702143967152,0.0,0.06531763076782227,92,0,488.134033203125,-0.012894702143967152,900,900,900,900,0.0,0.0,0.0,1.5707963267948966
1729765555005172295,-0.0007131293532438576,-0.00013823783956468105,-0.0010864471551030874,-0.0684661865234375,0.02814110368490219,-9.795599937438965,0.005646836012601852,-0.22218187153339386,0.42594361305236816,-0.0051512932404875755,-0.011241240426898003,1.6202130317687988,0.08691767603158951,0.03938295319676399,-0.04271078482270241,0.053221676498651505,0.03830401971936226,0.013065596111118793,0.0,0.06557244062423706,92,0,488.1339416503906,-0.013065596111118793,900,900,900,900,0.0,0.0,0.0,1.5707963267948966
1729765555014403204,-0.0023110276088118553,-0.0006708698347210884,-0.00028749913326464593,-0.08283140510320663,0.01976139098405838,-9.776446342468262,0.005646836012601852,-0.22218187153339386,0.42594361305236816,-0.00516692828387022,-0.01124546118080616,1.6202040910720825,0.0871845930814743,0.039572928100824356,-0.04260197654366493,0.05331582948565483,0.03851117566227913,0.013192843645811081,0.0,0.06576996296644211,92,0,488.1338195800781,-0.013192843645811081,900,900,900,900,0.0,0.0,0.0,1.5707963267948966
1729765555023311374,-0.00044681545114144683,0.0006607112009078264,0.0005114509840495884,-0.1295183300971985,-0.0029835267923772335,-9.741727828979492,0.005646836012601852,-0.22218187153339386,0.42594361305236816,-0.005174085032194853,-0.011245382949709892,1.6202008724212646,0.08678127825260162,0.03923762962222099,-0.042535021901130676,0.05335233360528946,0.03821243718266487,0.013679273426532745,0.0,0.0656251609325409,92,0,488.1337585449219,-0.013679273426532745,900,900,900,900,0.0,0.0,0.0,1.5707963267948966
1729765555030245667,-0.0007131297024898231,0.0025249235332012177,-0.002151711378246546,-0.09719661623239517,0.008987481705844402,-9.778839111328125,0.005646836012601852,-0.22218187153339386,0.42594361305236816,-0.005167126655578613,-0.011216784827411175,1.6201879978179932,0.0864020511507988,0.03891821950674057,-0.04246505722403526,0.053320009261369705,0.037914734333753586,0.013886701315641403,0.0,0.06542591750621796,92,0,488.1336669921875,-0.013886701315641403,900,900,900,900,0.0,0.0,0.0,1.5707963267948966
1729765555038645320,-0.001245764084160328,0.0003943950869143009,-0.0013527621049433947,-0.06966328620910645,0.007790383882820606,-9.783628463745117,0.005646836012601852,-0.22218187153339386,0.42594361305236816,-0.005168582778424025,-0.011205246672034264,1.6201684474945068,0.08604564517736435,0.0386161133646965,-0.042393554002046585,0.053245604038238525,0.037929002195596695,0.014031398110091686,0.0,0.06537356972694397,92,0,488.13360595703125,-0.014031398110091686,900,900,900,900,0.0,0.0,0.0,1.5707963267948966
1729765555046458912,0.001151082688011229,-0.0036003473214805126,-0.0005538133555091918,-0.09360530227422714,0.053280219435691833,-9.771656036376953,0.005646836012601852,-0.22218187153339386,0.42594361305236816,-0.005152030382305384,-0.01121706236153841,1.6201608180999756,0.08571112900972366,0.03833194077014923,-0.042320262640714645,0.053020600229501724,0.0378849171102047,0.014280997216701508,0.0,0.06516479700803757,92,0,488.133544921875,-0.014280997216701508,900,900,900,900,0.0,0.0,0.0,1.5707963267948966
1729765555054570725,-0.0004468144616112113,-0.0009371866472065449,-0.0002875001810025424,-0.1271241307258606,0.025746896862983704,-9.805176734924316,0.007085532881319523,-0.21570555865764618,0.42972421646118164,-0.005140797235071659,-0.011224580928683281,1.620155930519104,0.08539634943008423,0.03806333616375923,-0.04222119599580765,0.052787914872169495,0.037534963339567184,0.01429955568164587,0.0,0.06477219611406326,92,0,488.1334533691406,-0.01429955568164587,900,900,900,900,0.0,0.0,0.0,1.5707963267948966
1729765555063572273,-0.00018049831851385534,0.002258608117699623,-0.0002874978817999363,-0.09480240941047668,-0.01734873652458191,-9.805176734924316,0.007085532881319523,-0.21570555865764618,0.42972421646118164,-0.0051348465494811535,-0.011203326284885406,1.620150089263916,0.08510293811559677,0.037809208035469055,-0.04212290048599243,0.052964407950639725,0.037360552698373795,0.014246255159378052,0.0,0.06481542438268661,92,0,488.1333312988281,-0.014246255159378052,900,900,900,900,0.0,0.0,0.0,1.5707963267948966
1729765555071498817,-0.00018049791106022894,0.0025249235332012177,-0.00028749831835739315,-0.06487489491701126,0.07243383675813675,-9.783628463745117,0.008441278710961342,-0.21734344959259033,0.4232757091522217,-0.005123569164425135,-0.011174572631716728,1.620147705078125,0.08482980728149414,0.037571217864751816,-0.04202473536133766,0.052570026367902756,0.03745779022574425,0.01437610387802124,0.0,0.06454993039369583,92,0,488.13323974609375,-0.01437610387802124,900,900,900,900,0.0,0.0,0.0,1.5707963267948966
1729765555081702377,0.0003521351027302444,0.000927026616409421,-0.003749607130885124,-0.08642269670963287,0.03173240274190903,-9.786023139953613,0.008441278710961342,-0.21734344959259033,0.4232757091522217,-0.0051130508072674274,-0.01115870475769043,1.6201214790344238,0.08457407355308533,0.03734934329986572,-0.04192591458559036,0.05233519524335861,0.037419382482767105,0.014510572887957096,0.0,0.06433648616075516,92,0,488.1331481933594,-0.014510572887957096,900,900,900,900,0.0,0.0,0.0,1.5707963267948966
1729765555092279548,0.001683715614490211,0.002258608117699623,-0.004015923477709293,-0.12353284657001495,0.03771790489554405,-9.756095886230469,0.008441278710961342,-0.21734344959259033,0.4232757091522217,-0.005088577046990395,-0.011135387234389782,1.6200883388519287,0.0843367651104927,0.03714172542095184,-0.041826166212558746,0.05219132825732231,0.037139568477869034,0.014772647060453892,0.0,0.0640568658709526,92,0,488.133056640625,-0.014772647060453892,900,900,900,900,0.0,0.0,0.0,1.5707963267948966
1729765555097840291,-0.0009794505313038826,-0.0020024501718580723,-0.0013527646660804749,-0.0924082100391388,0.04729470983147621,-9.76686954498291,0.008441278710961342,-0.21734344959259033,0.4232757091522217,-0.005080193281173706,-0.011137548834085464,1.6200684309005737,0.0841161459684372,0.03694724664092064,-0.041723813861608505,0.05180303379893303,0.03701029717922211,0.015160451643168926,0.0,0.06366566568613052,92,0,488.1329345703125,-0.015160451643168926,900,900,900,900,0.0,0.0,0.0,1.5707963267948966
1729765555107203059,-0.0009794471552595496,0.0011933434288948774,-2.1182408090680838e-05,-0.09480240941047668,-0.0017864247784018517,-9.797992706298828,0.008441278710961342,-0.21734344959259033,0.4232757091522217,-0.00507729034870863,-0.011124687269330025,1.620065689086914,0.08391333371400833,0.03676648065447807,-0.041620150208473206,0.05193155258893967,0.03691558912396431,0.01523552555590868,0.0,0.06371535360813141,92,0,488.1328430175781,-0.01523552555590868,900,900,900,900,0.0,0.0,0.0,1.5707963267948966
1729765555116353904,-0.002577342791482806,0.00012807874009013176,0.0002451339387334883,-0.052903883159160614,0.029338199645280838,-9.796796798706055,0.008441278710961342,-0.21734344959259033,0.4232757091522217,-0.005085044074803591,-0.011113917455077171,1.6200664043426514,0.08372877538204193,0.03660011664032936,-0.04150645434856415,0.05181653052568436,0.03708760812878609,0.015267888084053993,0.0,0.06372161209583282,92,0,488.1327209472656,-0.015267888084053993,900,900,900,900,0.0,0.0,0.0,1.5707963267948966
1729765555122544378,-0.00284366006962955,0.0011933434288948774,-2.1184387151151896e-05,-0.07086039334535599,0.012578784488141537,-9.770459175109863,0.008441278710961342,-0.21734344959259033,0.4232757091522217,-0.0050965663976967335,-0.0111037977039814,1.6200625896453857,0.08356201648712158,0.036449652165174484,-0.041392892599105835,0.0519583597779274,0.037377577275037766,0.015384784899652004,0.0,0.06400589644908905,92,0,488.1325988769531,-0.015384784899652004,900,900,900,900,0.0,0.0,0.0,1.5707963267948966
1729765555132578928,-0.002577343489974737,-0.0009371857158839703,0.0010440847836434841,-0.09121111780405045,0.04011210799217224,-9.793205261230469,0.008441278710961342,-0.21734344959259033,0.4232757091522217,-0.005102053284645081,-0.01110406406223774,1.620066523551941,0.0834130346775055,0.036314159631729126,-0.04127845540642738,0.05187709629535675,0.037411537021398544,0.015555755235254765,0.0,0.06395979970693588,92,0,488.13250732421875,-0.015555755235254765,900,900,900,900,0.0,0.0,0.0,1.5707963267948966
1729765555138861579,0.00035213446244597435,-0.0006708698347210884,0.0010440838523209095,-0.10557632148265839,0.061659932136535645,-9.792008399963379,0.008441278710961342,-0.21734344959259033,0.4232757091522217,-0.005093344487249851,-0.011112375184893608,1.620078444480896,0.08327870070934296,0.03619132563471794,-0.041164007037878036,0.05147259309887886,0.03726933151483536,0.015599258244037628,0.0,0.06354864686727524,92,0,488.13238525390625,-0.015599258244037628,900,900,900,900,0.0,0.0,0.0,1.5707963267948966
1729765555145696958,8.581776637583971e-05,0.00039439485408365726,0.0018430310301482677,-0.10797052830457687,0.01736718788743019,-9.794403076171875,0.008441278710961342,-0.21734344959259033,0.4232757091522217,-0.005085123237222433,-0.011098670773208141,1.6200884580612183,0.08315909653902054,0.03607979789376259,-0.041049275547266006,0.05143330618739128,0.03705287724733353,0.015715913847088814,0.0,0.06339006870985031,92,0,488.13226318359375,-0.015715913847088814,900,900,900,900,0.0,0.0,0.0,1.5707963267948966
1729765555154998658,-0.0009794444777071476,0.001992291072383523,-0.0016190800815820694,-0.10437921434640884,0.04011210799217224,-9.794403076171875,0.008441278710961342,-0.21734344959259033,0.4232757091522217,-0.0050794025883078575,-0.011084310710430145,1.6200857162475586,0.08305532485246658,0.035979870706796646,-0.04093475267291069,0.051342085003852844,0.03697359189391136,0.0157290268689394,0.0,0.0632697120308876,92,0,488.13214111328125,-0.0157290268689394,900,900,900,900,0.0,0.0,0.0,1.5707963267948966
1729765555162146041,-0.00018049919162876904,0.0019922908395528793,-0.0024180265609174967,-0.09480240941047668,0.016170088201761246,-9.799189567565918,0.008441278710961342,-0.21734344959259033,0.4232757091522217,-0.005078230518847704,-0.01105868723243475,1.6200610399246216,0.0829666405916214,0.03589120879769325,-0.04082002863287926,0.05133141577243805,0.03686201944947243,0.015828829258680344,0.0,0.06319590657949448,92,0,488.1320495605469,-0.015828829258680344,900,900,900,900,0.0,0.0,0.0,1.5707963267948966
1729765555170754949,-0.002577343489974737,-0.00040455302223563194,-0.0016190805472433567,-0.08402850478887558,0.0006077764555811882,-9.787220001220703,0.008441278710961342,-0.21734344959259033,0.4232757091522217,-0.005085130222141743,-0.011054671369493008,1.6200450658798218,0.08289407938718796,0.03581433370709419,-0.04070540517568588,0.051508061587810516,0.036898624151945114,0.015888499096035957,0.0,0.0633607804775238,92,0,488.1319274902344,-0.015888499096035957,900,900,900,900,0.0,0.0,0.0,1.5707963267948966
1729765555178410303,0.0016837132861837745,-0.003334030508995056,-2.1178217139095068e-05,-0.11156181991100311,0.048491813242435455,-9.793205261230469,0.008441278710961342,-0.21734344959259033,0.4232757091522217,-0.00507349194958806,-0.011069061234593391,1.6200400590896606,0.08283627033233643,0.03574901074171066,-0.04060424864292145,0.051291052252054214,0.03678639978170395,0.016003776341676712,0.0,0.06311902403831482,92,0,488.1318359375,-0.016003776341676712,900,900,900,900,0.0,0.0,0.0,1.5707963267948966
1729765555185961558,0.0003521354228723794,-0.0009371866472065449,-0.0005538149853236973,-0.10557632148265839,-0.0017864247784018517,-9.784826278686523,0.008441278710961342,-0.21734344959259033,0.4232757091522217,-0.00506239477545023,-0.011079522781074047,1.6200369596481323,0.08279265463352203,0.0356937050819397,-0.040502384305000305,0.051427923142910004,0.036616042256355286,0.016115598380565643,0.0,0.06313133984804153,92,0,488.1317138671875,-0.016115598380565643,900,900,900,900,0.0,0.0,0.0,1.5707963267948966
1729765555193748191,0.00168371363542974,-0.000670870766043663,-2.118211705237627e-05,-0.11156181991100311,0.04609761759638786,-9.789612770080566,0.008441278710961342,-0.21734344959259033,0.4232757091522217,-0.005043274722993374,-0.011079696007072926,1.6200319528579712,0.08276410400867462,0.035648468881845474,-0.04039938375353813,0.05139121413230896,0.03647495433688164,0.016261018812656403,0.0,0.06301967054605484,92,0,488.1316223144531,-0.016261018812656403,900,900,900,900,0.0,0.0,0.0,1.5707963267948966
1729765555198735337,-0.004175241105258465,0.0011933417990803719,0.001310395309701562,-0.10198501497507095,0.01976139098405838,-9.80756950378418,0.0075269415974617004,-0.2156488597393036,0.42799144983291626,-0.005063180811703205,-0.011070563457906246,1.6200408935546875,0.08274852484464645,0.035612937062978745,-0.04029582813382149,0.05131790041923523,0.03636165335774422,0.01626342348754406,0.0,0.06289432942867279,92,0,488.1315002441406,-0.01626342348754406,900,900,900,900,0.0,0.0,0.0,1.5707963267948966
1729765555211780707,-0.00018049759091809392,0.0006607100367546082,-0.0016190768219530582,-0.0792401060461998,-0.022137142717838287,-9.799188613891602,0.0075269415974617004,-0.2156488597393036,0.42799144983291626,-0.0050673834048211575,-0.011058671399950981,1.6200296878814697,0.08274778723716736,0.035587895661592484,-0.04019259661436081,0.05166403576731682,0.036450061947107315,0.01623697392642498,0.0,0.06322799623012543,92,0,488.13140869140625,-0.01623697392642498,900,900,900,900,0.0,0.0,0.0,1.5707963267948966
1729765555218907106,-0.00014791387366130948,-0.002247163560241461,0.00023845594841986895,-0.09123603254556656,0.049697719514369965,-9.771787643432617,0.013264085166156292,-0.21476007997989655,0.43665194511413574,-0.005063643213361502,-0.011069421656429768,1.6200281381607056,0.08276180922985077,0.03557371348142624,-0.040088605135679245,0.051610857248306274,0.036468036472797394,0.016447821632027626,0.0,0.06319492310285568,92,0,488.1313171386719,-0.016447821632027626,900,900,900,900,0.0,0.0,0.0,1.5707963267948966
1729765555227876050,0.0003847201878670603,-0.0011818977072834969,-0.0021583898924291134,-0.07806791365146637,0.05089481547474861,-9.762210845947266,0.013264085166156292,-0.21476007997989655,0.43665194511413574,-0.005053562577813864,-0.011058197356760502,1.6200217008590698,0.08282636106014252,0.03557536005973816,-0.03985707834362984,0.05156772583723068,0.03645168989896774,0.016894498839974403,0.0,0.06315026432275772,92,0,488.1310729980469,-0.016894498839974403,900,900,900,900,0.0,0.0,0.0,1.5707963267948966
1729765555242927036,0.0006510361563414335,0.0004159978125244379,-0.002158388029783964,-0.09243312478065491,0.04371220991015434,-9.777774810791016,0.013264085166156292,-0.21476007997989655,0.43665194511413574,-0.005049567203968763,-0.011055519804358482,1.6200120449066162,0.08287671953439713,0.035590916872024536,-0.039729561656713486,0.05140923336148262,0.036508794873952866,0.017168909311294556,0.0,0.06305395811796188,92,0,488.1309509277344,-0.017168909311294556,900,900,900,900,0.0,0.0,0.0,1.5707963267948966
1729765555251190980,0.00118366745300591,0.001747578615322709,0.0005047725280746818,-0.10799544304609299,0.011390489526093006,-9.755029678344727,0.013264085166156292,-0.21476007997989655,0.43665194511413574,-0.005037886090576649,-0.01103647705167532,1.6200103759765625,0.0829390212893486,0.03561551123857498,-0.039600130170583725,0.05154130235314369,0.03639955446124077,0.017534032464027405,0.0,0.06309860199689865,92,0,488.1308288574219,-0.017534032464027405,900,900,900,900,0.0,0.0,0.0,1.5707963267948966
1729765555259412935,0.0025152491871267557,-0.0006492664106190205,-0.0010931248543784022,-0.11398094147443771,0.07603394240140915,-9.772984504699707,0.013264085166156292,-0.21476007997989655,0.43665194511413574,-0.005015827249735594,-0.011036868207156658,1.6200028657913208,0.083013154566288,0.03564811125397682,-0.03946857154369354,0.05134543776512146,0.03622596338391304,0.017791906371712685,0.0,0.06283847987651825,92,0,488.13067626953125,-0.017791906371712685,900,900,900,900,0.0,0.0,0.0,1.5707963267948966
1729765555267161448,0.0017163014272227883,0.0012149475514888763,-0.0029573366045951843,-0.07208241522312164,0.06526002287864685,-9.768198013305664,0.013264085166156292,-0.21476007997989655,0.43665194511413574,-0.004999248310923576,-0.01103009469807148,1.6199804544448853,0.08309586346149445,0.03568902611732483,-0.039335183799266815,0.050958890467882156,0.03629996255040169,0.018095089122653008,0.0,0.06256593018770218,92,0,488.13055419921875,-0.018095089122653008,900,900,900,900,0.0,0.0,0.0,1.5707963267948966
1729765555275166937,-0.0012131803669035435,-0.0017145299352705479,-0.00029417831683531404,-0.06609690189361572,0.026952799409627914,-9.7346773147583,0.013264085166156292,-0.21476007997989655,0.43665194511413574,-0.005000136326998472,-0.011035174131393433,1.6199699640274048,0.0831882655620575,0.03574007377028465,-0.0391993522644043,0.05094701796770096,0.03653791546821594,0.01856008917093277,0.0,0.06269463896751404,92,0,488.1304016113281,-0.01856008917093277,900,900,900,900,0.0,0.0,0.0,1.5707963267948966
1729765555282644545,0.00011840243678307161,0.00014968262985348701,0.00023845856776461005,-0.08046212047338486,0.04610642045736313,-9.767001152038574,0.013264085166156292,-0.21476007997989655,0.43665194511413574,-0.005005657207220793,-0.011037188582122326,1.619969129562378,0.0832909643650055,0.03580117225646973,-0.03906010463833809,0.05080670490860939,0.03668313845992088,0.01895190216600895,0.0,0.06266557425260544,92,0,488.1302795410156,-0.01895190216600895,900,900,900,900,0.0,0.0,0.0,1.5707963267948966
1729765555289741353,-0.000946860876865685,0.0009486305061727762,-0.0008268094970844686,-0.08046212047338486,0.032938309013843536,-9.802913665771484,0.013264085166156292,-0.21476007997989655,0.43665194511413574,-0.005008176434785128,-0.011032994836568832,1.6199641227722168,0.08340370655059814,0.03587149456143379,-0.03891929239034653,0.05079416558146477,0.036797910928726196,0.019047295674681664,0.0,0.06272267550230026,92,0,488.130126953125,-0.019047295674681664,900,900,900,900,0.0,0.0,0.0,1.5707963267948966
1729765555298132066,0.0006510353414341807,0.0004159978125244379,-0.0016257555689662695,-0.09841863065958023,0.052091922610998154,-9.778970718383789,0.013264085166156292,-0.21476007997989655,0.43665194511413574,-0.005006555002182722,-0.011025792919099331,1.619950532913208,0.0835263654589653,0.03595034405589104,-0.03876425698399544,0.05067687854170799,0.03679946810007095,0.01917838305234909,0.0,0.06262864172458649,92,0,488.1299743652344,-0.01917838305234909,900,900,900,900,0.0,0.0,0.0,1.5707963267948966
1729765555306938506,-0.0006805466255173087,-0.0006492664106190205,-0.001093125669285655,-0.0840534195303917,0.019770193845033646,-9.769393920898438,0.013264085166156292,-0.21476007997989655,0.43665194511413574,-0.005007248371839523,-0.011029388755559921,1.6199313402175903,0.08365839719772339,0.03603722155094147,-0.03860814496874809,0.050679761916399,0.03687087446451187,0.019459499046206474,0.0,0.06267295777797699,92,0,488.12982177734375,-0.019459499046206474,900,900,900,900,0.0,0.0,0.0,1.5707963267948966
1729765555315842155,0.0006510362727567554,0.0004159978125244379,-0.0016257553361356258,-0.07567370682954788,0.019770193845033646,-9.812490463256836,0.013264085166156292,-0.21476007997989655,0.43665194511413574,-0.00500601576641202,-0.01102456171065569,1.6199156045913696,0.08380139619112015,0.03613285347819328,-0.038451340049505234,0.05086533725261688,0.037052903324365616,0.0194794163107872,0.0,0.06293012201786041,92,0,488.1296691894531,-0.0194794163107872,900,900,900,900,0.0,0.0,0.0,1.5707963267948966
1729765555326805845,0.0017163001466542482,-0.0019808472134172916,-0.0021583896595984697,-0.08884181827306747,0.06166873499751091,-9.794534683227539,0.013264085166156292,-0.21476007997989655,0.43665194511413574,-0.00499207666143775,-0.011034775525331497,1.6198934316635132,0.0839536041021347,0.03623711317777634,-0.038295332342386246,0.05062730610370636,0.03714562952518463,0.01949656568467617,0.0,0.06279268860816956,92,0,488.1295166015625,-0.01949656568467617,900,900,900,900,0.0,0.0,0.0,1.5707963267948966
1729765555331136447,-0.0009468626230955124,-0.0009155822917819023,-0.0016257591778412461,-0.1163751408457756,-0.028113842010498047,-9.740663528442383,0.013264085166156292,-0.21476007997989655,0.43665194511413574,-0.004994222428649664,-0.01104828529059887,1.619869351387024,0.08411507308483124,0.03634866327047348,-0.03813815116882324,0.050932422280311584,0.037053558975458145,0.019935566931962967,0.0,0.06298474222421646,92,0,488.1293640136719,-0.019935566931962967,900,900,900,900,0.0,0.0,0.0,1.5707963267948966
1729765555338926354,-0.00041422920185141265,0.00014968239702284336,-0.0008268076926469803,-0.0816592201590538,0.02096729725599289,-9.769393920898438,0.013264085166156292,-0.21476007997989655,0.43665194511413574,-0.004999793600291014,-0.011051163077354431,1.6198562383651733,0.08428869396448135,0.036466989666223526,-0.037977974861860275,0.05120133236050606,0.03711700811982155,0.020314013585448265,0.0,0.06323961168527603,92,0,488.1291809082031,-0.020314013585448265,900,900,900,900,0.0,0.0,0.0,1.5707963267948966
1729765555345914569,0.002248932607471943,0.0033454750664532185,-0.0013594398042187095,-0.09841863065958023,0.011390491388738155,-9.813688278198242,0.013264085166156292,-0.21476007997989655,0.43665194511413574,-0.004988349974155426,-0.011026430875062943,1.6198375225067139,0.08447255194187164,0.036592982709407806,-0.037816889584064484,0.051360853016376495,0.0371757335960865,0.02031852863729,0.0,0.06340324878692627,92,0,488.1290283203125,-0.02031852863729,900,900,900,900,0.0,0.0,0.0,1.5707963267948966
1729765555353419273,-0.003610022831708193,0.0012149468529969454,-0.0008268098463304341,-0.07806791365146637,-0.0029747230000793934,-9.784957885742188,0.0053795152343809605,-0.21803610026836395,0.4268491566181183,-0.005003687459975481,-0.011013437993824482,1.6198254823684692,0.08466682583093643,0.03672618418931961,-0.0376497246325016,0.051631856709718704,0.037288419902324677,0.020393075421452522,0.0,0.06368888914585114,92,0,488.1288757324219,-0.020393075421452522,900,900,900,900,0.0,0.0,0.0,1.5707963267948966
1729765555362435824,-0.0006805458106100559,0.0030791605822741985,0.0005047729937359691,-0.056520093232393265,0.08920205384492874,-9.802913665771484,0.014511408284306526,-0.2226579636335373,0.42791512608528137,-0.005017027258872986,-0.010990866459906101,1.6198198795318604,0.08487023413181305,0.0368678905069828,-0.037482455372810364,0.05140380933880806,0.03761754930019379,0.020458362996578217,0.0,0.06369797140359879,92,0,488.1286926269531,-0.020458362996578217,900,900,900,900,0.0,0.0,0.0,1.5707963267948966
1729765555371336539,-0.0009468607604503632,0.00148126226849854,-0.00348996976390481,-0.08285631984472275,0.007799186743795872,-9.77418327331543,0.014511408284306526,-0.2226579636335373,0.42791512608528137,-0.005023779813200235,-0.010978028178215027,1.619792103767395,0.08508031070232391,0.037018001079559326,-0.03731488063931465,0.05143678933382034,0.037776824086904526,0.020681016147136688,0.0,0.06381874531507492,92,0,488.1285400390625,-0.020681016147136688,900,900,900,900,0.0,0.0,0.0,1.5707963267948966
1729765555382702515,-0.001479495782405138,0.00041599920950829983,0.00023845629766583443,-0.06609690189361572,0.008996284566819668,-9.796928405761719,0.014511408284306526,-0.2226579636335373,0.42791512608528137,-0.0050339410081505775,-0.010971521958708763,1.6197811365127563,0.08529999852180481,0.03717587888240814,-0.03714645653963089,0.05168136581778526,0.03802129626274109,0.020800279453396797,0.0,0.06416060030460358,92,0,488.12835693359375,-0.020800279453396797,900,900,900,900,0.0,0.0,0.0,1.5707963267948966
1729765555387654773,-0.00041422745562158525,-0.0003829509951174259,-0.0005604898324236274,-0.06370270997285843,0.05089481547474861,-9.828051567077637,0.014511408284306526,-0.2226579636335373,0.42791512608528137,-0.005044198594987392,-0.010973521508276463,1.6197768449783325,0.08552812039852142,0.03734198957681656,-0.036978695541620255,0.051584918051958084,0.038297295570373535,0.020674195140600204,0.0,0.06424707919359207,92,0,488.1282043457031,-0.020674195140600204,900,900,900,900,0.0,0.0,0.0,1.5707963267948966
1729765555394302059,0.0014499826356768608,0.001481261570006609,0.0005047724116593599,-0.07806791365146637,0.006602085195481777,-9.822067260742188,0.014511408284306526,-0.2226579636335373,0.42791512608528137,-0.005029948893934488,-0.01096382923424244,1.6197705268859863,0.08576396107673645,0.037515927106142044,-0.03681310638785362,0.05174965783953667,0.038488034158945084,0.02047654800117016,0.0,0.06449306756258011,92,0,488.1280212402344,-0.02047654800117016,900,900,900,900,0.0,0.0,0.0,1.5707963267948966
1729765555404810798,-0.0012131769908592105,0.0025465264916419983,-0.001359440851956606,-0.07926502078771591,0.01617889106273651,-9.778970718383789,0.014511408284306526,-0.2226579636335373,0.42791512608528137,-0.005039108917117119,-0.010946697555482388,1.619761347770691,0.08600915968418121,0.0376974456012249,-0.03664787858724594,0.05198592692613602,0.03871710225939751,0.020696336403489113,0.0,0.06481936573982239,92,0,488.12786865234375,-0.020696336403489113,900,900,900,900,0.0,0.0,0.0,1.5707963267948966
1729765555413276184,-0.0006805463926866651,0.0004159989766776562,0.0013037219177931547,-0.07567370682954788,0.012587589211761951,-9.812490463256836,0.014511408284306526,-0.2226579636335373,0.42791512608528137,-0.005043898709118366,-0.010943851433694363,1.6197582483291626,0.08626309037208557,0.03788623586297035,-0.03648269921541214,0.0521567203104496,0.03892308473587036,0.02062351070344448,0.0,0.06507941335439682,92,0,488.127685546875,-0.02062351070344448,900,900,900,900,0.0,0.0,0.0,1.5707963267948966
1729765555419934261,0.002515253145247698,-0.0006492659449577332,-0.002424701116979122,-0.11038964241743088,0.011390489526093006,-9.78974437713623,0.014511408284306526,-0.2226579636335373,0.42791512608528137,-0.005034014582633972,-0.010946505703032017,1.6197465658187866,0.08586769551038742,0.03754517063498497,-0.03632013127207756,0.05214189738035202,0.03867950662970543,0.0207348745316267,0.0,0.06492212414741516,92,0,488.1275329589844,-0.0207348745316267,900,900,900,900,0.0,0.0,0.0,1.5707963267948966
1729765555426161162,0.0019826116040349007,-0.0022471658885478973,0.0018363507697358727,-0.08046212047338486,0.04850061610341072,-9.79094123840332,0.014511408284306526,-0.2226579636335373,0.42791512608528137,-0.00500614196062088,-0.010948858223855495,1.619744896888733,0.0854942798614502,0.037221238017082214,-0.03615781292319298,0.051787059754133224,0.03852870315313339,0.02077312208712101,0.0,0.0645473524928093,92,0,488.12738037109375,-0.02077312208712101,900,900,900,900,0.0,0.0,0.0,1.5707963267948966
1729765555434612999,0.00038472708547487855,-0.0038450597785413265,-0.0005604954203590751,-0.09961573034524918,0.0185730941593647,-9.767001152038574,0.014511408284306526,-0.2226579636335373,0.42791512608528137,-0.004987908527255058,-0.010970337316393852,1.6197502613067627,0.08514118939638138,0.03691494092345238,-0.035995010286569595,0.051563914865255356,0.03840557858347893,0.02101888135075569,0.0,0.06429483741521835,92,0,488.127197265625,-0.02101888135075569,900,900,900,900,0.0,0.0,0.0,1.5707963267948966
1729765555441620911,-0.0009468622738495469,-0.003312426619231701,-0.0029573380015790462,-0.11038963496685028,0.04490932077169418,-9.763407707214355,0.014511408284306526,-0.2226579636335373,0.42791512608528137,-0.004984190687537193,-0.010989854112267494,1.619715929031372,0.0848093032836914,0.036624643951654434,-0.03583037480711937,0.05140302702784538,0.03809214010834694,0.02136404439806938,0.0,0.06397876143455505,92,0,488.1270446777344,-0.02136404439806938,900,900,900,900,0.0,0.0,0.0,1.5707963267948966
1729765555449863724,-0.001213180716149509,-0.0009155822917819023,-0.0002941779384855181,-0.10200992971658707,0.013784690760076046,-9.80530834197998,0.014511408284306526,-0.2226579636335373,0.42791512608528137,-0.0049806092865765095,-0.010997554287314415,1.619697093963623,0.08449741452932358,0.03635002300143242,-0.03566472977399826,0.05127030238509178,0.037930600345134735,0.021414797753095627,0.0,0.06377597153186798,92,0,488.12689208984375,-0.021414797753095627,900,900,900,900,0.0,0.0,0.0,1.5707963267948966
1729765555457522490,-0.0009468585485592484,0.0006823118310421705,-0.00375628424808383,-0.09003893285989761,0.0042078811675310135,-9.764606475830078,0.014511408284306526,-0.2226579636335373,0.42791512608528137,-0.00498433830216527,-0.010987180285155773,1.619667887687683,0.08420614898204803,0.03609083220362663,-0.035499319434165955,0.05127735063433647,0.03776203468441963,0.02157210372388363,0.0,0.06368153542280197,92,0,488.126708984375,-0.02157210372388363,900,900,900,900,0.0,0.0,0.0,1.5707963267948966
1729765555465003979,0.0022489316761493683,0.0006823134608566761,-0.0013594399206340313,-0.11876934766769409,0.038923803716897964,-9.764606475830078,0.014511408284306526,-0.2226579636335373,0.42791512608528137,-0.0049593569710850716,-0.010972483083605766,1.6196463108062744,0.08393460512161255,0.03584687411785126,-0.03533211722970009,0.05106968805193901,0.03752903267741203,0.021919939666986465,0.0,0.06337618827819824,92,0,488.1265563964844,-0.021919939666986465,900,900,900,900,0.0,0.0,0.0,1.5707963267948966
1729765555470113626,0.0001183987915283069,-0.0025134794414043427,-0.0002941775310318917,-0.09841863065958023,-0.01015732903033495,-9.763407707214355,0.014511408284306526,-0.2226579636335373,0.42791512608528137,-0.004945017397403717,-0.010980124585330486,1.6196271181106567,0.08368193358182907,0.03561672568321228,-0.0351385734975338,0.051104962825775146,0.037300460040569305,0.02225661464035511,0.0,0.06326959282159805,92,0,488.1263427734375,-0.02225661464035511,900,900,900,900,0.0,0.0,0.0,1.5707963267948966
1729765555482215918,-0.0001479093625675887,0.00041599804535508156,-0.001625757315196097,-0.09123603254556656,0.0748368352651596,-9.782562255859375,0.006726586725562811,-0.21520936489105225,0.43077418208122253,-0.004925289656966925,-0.010984511114656925,1.6196211576461792,0.08344929665327072,0.03540158271789551,-0.034944795072078705,0.05107509344816208,0.03732889145612717,0.022275635972619057,0.0,0.06326224654912949,92,0,488.12615966796875,-0.022275635972619057,900,900,900,900,0.0,0.0,0.0,1.5707963267948966
1729765555492373397,-0.0004142272227909416,-0.00011663418263196945,-0.003756286110728979,-0.10081283003091812,0.04850061610341072,-9.786154747009277,0.006726586725562811,-0.21520936489105225,0.43077418208122253,-0.004921711981296539,-0.010981434024870396,1.6196022033691406,0.08323304355144501,0.03520118445158005,-0.034751564264297485,0.05067725479602814,0.03719509765505791,0.022425740957260132,0.0,0.06286222487688065,92,0,488.1259765625,-0.022425740957260132,900,900,900,900,0.0,0.0,0.0,1.5707963267948966
1729765555497338946,0.0009173512225970626,0.0036117921117693186,-2.7859234251081944e-05,-0.08884181827306747,0.010193387977778912,-9.781364440917969,0.006726586725562811,-0.21520936489105225,0.43077418208122253,-0.004903895314782858,-0.0109474528580904,1.6195861101150513,0.08303371071815491,0.03501401096582413,-0.0345592238008976,0.050703614950180054,0.03700828552246094,0.022342868149280548,0.0,0.06277316063642502,92,0,488.1257629394531,-0.022342868149280548,900,900,900,900,0.0,0.0,0.0,1.5707963267948966
1729765555506432781,0.002515248255804181,0.002280211541801691,-2.7859932743012905e-05,-0.12475486099720001,0.014981790445744991,-9.750240325927734,0.006770414300262928,-0.2173076868057251,0.4237971305847168,-0.0048887296579778194,-0.01093469187617302,1.619582176208496,0.08285241574048996,0.03484012186527252,-0.03436737507581711,0.050716277211904526,0.036815300583839417,0.022643448784947395,0.0,0.06266982853412628,92,0,488.1255798339844,-0.022643448784947395,900,900,900,900,0.0,0.0,0.0,1.5707963267948966
1729765555513181347,-0.0006805431330576539,-0.002779796253889799,-0.0005604954203590751,-0.09722153097391129,0.022164396941661835,-9.751436233520508,0.006770414300262928,-0.2173076868057251,0.4237971305847168,-0.004876997787505388,-0.010941457003355026,1.6195744276046753,0.08268860727548599,0.03467807546257973,-0.03417342156171799,0.05070796236395836,0.036591850221157074,0.02306855097413063,0.0,0.06253207474946976,92,0,488.1253967285156,-0.02306855097413063,900,900,900,900,0.0,0.0,0.0,1.5707963267948966
1729765555520783341,-0.0020121275447309017,0.00014968262985348701,-0.0005604950129054487,-0.09722153097391129,0.019770193845033646,-9.778970718383789,0.006770414300262928,-0.2173076868057251,0.4237971305847168,-0.00487844692543149,-0.010942207649350166,1.619558334350586,0.08254124969244003,0.03452868387103081,-0.03397764638066292,0.05063502490520477,0.036497827619314194,0.02332763373851776,0.0,0.06241792440414429,92,0,488.12518310546875,-0.02332763373851776,900,900,900,900,0.0,0.0,0.0,1.5707963267948966
1729765555528387308,0.0006510355742648244,-0.0009155822917819023,0.0007710916688665748,-0.11398094147443771,0.04490932077169418,-9.77418327331543,0.006770414300262928,-0.2173076868057251,0.4237971305847168,-0.004873083438724279,-0.010937894694507122,1.6195566654205322,0.08240947127342224,0.034391384571790695,-0.03378095477819443,0.05043260008096695,0.03627317026257515,0.02357073873281479,0.0,0.06212237849831581,92,0,488.125,-0.02357073873281479,900,900,900,900,0.0,0.0,0.0,1.5707963267948966
1729765555536668800,0.0003847172483801842,-0.0011818986386060715,0.0023689856752753258,-0.10919254273176193,0.029347002506256104,-9.810094833374023,0.006770414300262928,-0.2173076868057251,0.4237971305847168,-0.004860886372625828,-0.0109455781057477,1.6195670366287231,0.08229224383831024,0.034265484660863876,-0.03360062092542648,0.05027423053979874,0.03609278425574303,0.023566434159874916,0.0,0.06188850849866867,92,0,488.12481689453125,-0.023566434159874916,900,900,900,900,0.0,0.0,0.0,1.5707963267948966
1729765555544477594,0.0006510380189865828,0.0009486312046647072,-0.0005604913458228111,-0.09841863065958023,0.01617889106273651,-9.79213809967041,0.006770414300262928,-0.2173076868057251,0.4237971305847168,-0.004848821088671684,-0.010932447388768196,1.6195448637008667,0.08219007402658463,0.03415130078792572,-0.03342033550143242,0.05014285072684288,0.036064766347408295,0.02375110238790512,0.0,0.06176546588540077,92,0,488.1246337890625,-0.02375110238790512,900,900,900,900,0.0,0.0,0.0,1.5707963267948966
1729765555548385207,0.0006510328967124224,0.0022802110761404037,0.002368986140936613,-0.10440413653850555,0.03054410219192505,-9.79094123840332,0.006770414300262928,-0.2173076868057251,0.4237971305847168,-0.004837497137486935,-0.010913156904280186,1.619545340538025,0.08210156857967377,0.03404928743839264,-0.033238884061574936,0.0499589778482914,0.03597123920917511,0.02389700897037983,0.0,0.06156159192323685,92,0,488.12445068359375,-0.02389700897037983,900,900,900,900,0.0,0.0,0.0,1.5707963267948966
1729765555559837847,0.0011836697813123465,-0.0006492664106190205,0.0005047726444900036,-0.09243312478065491,0.0042078811675310135,-9.752634048461914,0.006770414300262928,-0.2173076868057251,0.4237971305847168,-0.004817851819097996,-0.010911489836871624,1.619553565979004,0.08202808350324631,0.03395848721265793,-0.03305615112185478,0.050091296434402466,0.035890039056539536,0.024236444383859634,0.0,0.06162169203162193,92,0,488.124267578125,-0.024236444383859634,900,900,900,900,0.0,0.0,0.0,1.5707963267948966
1729765555569932645,-0.00041422960930503905,-0.0025134803727269173,0.0021026674658060074,-0.07327950745820999,0.04012091085314751,-9.764606475830078,0.006770414300262928,-0.2173076868057251,0.4237971305847168,-0.004816477186977863,-0.010919200256466866,1.619559645652771,0.08196888864040375,0.03387949615716934,-0.03287094086408615,0.049886517226696014,0.03596587851643562,0.024571847170591354,0.0,0.061499666422605515,92,0,488.12408447265625,-0.024571847170591354,900,900,900,900,0.0,0.0,0.0,1.5707963267948966
1729765555576855500,0.0006510373204946518,-0.00011663418263196945,-0.0018920722650364041,-0.06968820095062256,0.004207882098853588,-9.79094123840332,0.006770414300262928,-0.2173076868057251,0.4237971305847168,-0.00480647012591362,-0.010921244509518147,1.619544506072998,0.08192352950572968,0.03381301090121269,-0.03268415480852127,0.049972597509622574,0.03612072765827179,0.0247182697057724,0.0,0.06166009604930878,92,0,488.1239013671875,-0.0247182697057724,900,900,900,900,0.0,0.0,0.0,1.5707963267948966
1729765555585066097,0.0011836669873446226,-0.001448214054107666,0.0005047724116593599,-0.07208241522312164,0.04850061610341072,-9.757424354553223,0.006770414300262928,-0.2173076868057251,0.4237971305847168,-0.004792831372469664,-0.010921441949903965,1.6195411682128906,0.08189260959625244,0.03375903517007828,-0.03249617666006088,0.049905579537153244,0.03627082332968712,0.02501765266060829,0.0,0.06169391795992851,92,0,488.12371826171875,-0.02501765266060829,900,900,900,900,0.0,0.0,0.0,1.5707963267948966
1729765555593609520,0.0019826132338494062,-0.001448214054107666,0.0015700393123552203,-0.13313454389572144,0.05089481547474861,-9.755029678344727,0.006770414300262928,-0.2173076868057251,0.4237971305847168,-0.004774467553943396,-0.010936855338513851,1.6195467710494995,0.0818735808134079,0.03371601551771164,-0.03232238069176674,0.049640387296676636,0.03605610504746437,0.025423100218176842,0.0,0.0613531656563282,92,0,488.12353515625,-0.025423100218176842,900,900,900,900,0.0,0.0,0.0,1.5707963267948966
1729765555600126423,-0.0014794932212680578,0.003079158952459693,-0.0010931253200396895,-0.11398094147443771,0.028149902820587158,-9.769393920898438,0.006770414300262928,-0.2173076868057251,0.4237971305847168,-0.0047756377607584,-0.010915357619524002,1.619541883468628,0.08186659961938858,0.03368096053600311,-0.032145749777555466,0.0495789609849453,0.035726603120565414,0.025704028084874153,0.0,0.06111025810241699,92,0,488.12335205078125,-0.025704028084874153,900,900,900,900,0.0,0.0,0.0,1.5707963267948966
1729765555608353214,-0.0022784422617405653,0.0014812634326517582,0.0013037218013778329,-0.0816592201590538,0.012587587349116802,-9.776577949523926,0.006770414300262928,-0.2173076868057251,0.4237971305847168,-0.004789053462445736,-0.010896269232034683,1.6195440292358398,0.08187223225831985,0.033655595034360886,-0.03196690231561661,0.04957699030637741,0.035800885409116745,0.025942344218492508,0.0,0.06115211546421051,92,0,488.1231689453125,-0.025942344218492508,900,900,900,900,0.0,0.0,0.0,1.5707963267948966
1729765555615350889,0.002781564136967063,0.0009486319031566381,0.0015700393123552203,-0.0840534195303917,0.01498179230839014,-9.813688278198242,0.005861983168870211,-0.21768751740455627,0.42916250228881836,-0.004774209577590227,-0.010884895920753479,1.6195529699325562,0.08189134299755096,0.03364090248942375,-0.031786929816007614,0.04970746487379074,0.03585391119122505,0.025932490825653076,0.0,0.061288945376873016,92,0,488.1230163574219,-0.025932490825653076,900,900,900,900,0.0,0.0,0.0,1.5707963267948966
1729765555625504685,-0.0001479115744587034,-0.0009155832231044769,-0.0010931232245638967,-0.11278383433818817,0.05927452817559242,-9.80411148071289,0.005861983168870211,-0.21768751740455627,0.42916250228881836,-0.0047682225704193115,-0.010867440141737461,1.6195557117462158,0.08192334324121475,0.03363633155822754,-0.031607355922460556,0.04971335828304291,0.03581322729587555,0.025859322398900986,0.0,0.061269938945770264,92,0,488.1228332519531,-0.025859322398900986,900,900,900,900,0.0,0.0,0.0,1.5707963267948966
1729765555633283420,0.0009173498256132007,0.001214946387335658,0.0002384570543654263,-0.11038964241743088,0.019770193845033646,-9.781364440917969,0.005861983168870211,-0.21768751740455627,0.42916250228881836,-0.004757697228342295,-0.010866871103644371,1.6195449829101562,0.08196638524532318,0.033640455454587936,-0.03142784908413887,0.049500782042741776,0.035635218024253845,0.025889519602060318,0.0,0.060993410646915436,92,0,488.1226501464844,-0.025889519602060318,900,900,900,900,0.0,0.0,0.0,1.5707963267948966
1729765555643976808,-0.00041422786307521164,0.0017475789645686746,-0.0016257575480267406,-0.09961573034524918,0.012587587349116802,-9.771787643432617,0.005861983168870211,-0.21768751740455627,0.42916250228881836,-0.004758170805871487,-0.010858968831598759,1.6195377111434937,0.08202071487903595,0.03365284204483032,-0.031247232109308243,0.04958571493625641,0.035535190254449844,0.02610429935157299,0.0,0.06100403890013695,92,0,488.1224670410156,-0.02610429935157299,900,900,900,900,0.0,0.0,0.0,1.5707963267948966
1729765555649701277,-0.0014794967137277126,-0.0011818977072834969,-0.0029573356732726097,-0.07926502078771591,0.04131801426410675,-9.759817123413086,0.009484409354627132,-0.2164888083934784,0.4280571937561035,-0.004768878687173128,-0.010860499925911427,1.6195088624954224,0.0820869728922844,0.033674415200948715,-0.031064201146364212,0.049552325159311295,0.03561355918645859,0.02644551359117031,0.0,0.06102260574698448,92,0,488.1222839355469,-0.02644551359117031,900,900,900,900,0.0,0.0,0.0,1.5707963267948966
1729765555658063880,-0.0004142297257203609,-0.0006492668762803078,-0.0002941751736216247,-0.09961573034524918,0.02096729725599289,-9.794534683227539,0.009484409354627132,-0.2164888083934784,0.4280571937561035,-0.004772703163325787,-0.010865321382880211,1.619504690170288,0.08216395974159241,0.0337054580450058,-0.030870316550135612,0.04954354465007782,0.03561782464385033,0.026592345908284187,0.0,0.0610179677605629,92,0,488.1221008300781,-0.026592345908284187,900,900,900,900,0.0,0.0,0.0,1.5707963267948966
1729765555667360410,0.0009173481957986951,-0.0011818986386060715,0.0015700379153713584,-0.11398094147443771,0.053289029747247696,-9.793336868286133,0.009484409354627132,-0.2164888083934784,0.4280571937561035,-0.004768240265548229,-0.010874615050852299,1.6194965839385986,0.08225187659263611,0.03374513238668442,-0.03067556396126747,0.049492571502923965,0.03560502082109451,0.02673446200788021,0.0,0.06096910685300827,92,0,488.12188720703125,-0.02673446200788021,900,900,900,900,0.0,0.0,0.0,1.5707963267948966
1729765555675188205,0.00038471940206363797,0.0009486307390034199,0.0005047725280746818,-0.11517804116010666,0.04371220991015434,-9.817277908325195,0.009484409354627132,-0.2164888083934784,0.4280571937561035,-0.004762078169733286,-0.010874418541789055,1.619504451751709,0.08234945684671402,0.03379262238740921,-0.03048013336956501,0.04934416338801384,0.03543470799922943,0.0267215296626091,0.0,0.06074919551610947,92,0,488.1217041015625,-0.0267215296626091,900,900,900,900,0.0,0.0,0.0,1.5707963267948966
1729765555682058581,0.001982615329325199,-0.00251347990706563,-0.00029417642508633435,-0.08764471113681793,0.029347002506256104,-9.782561302185059,0.009484409354627132,-0.2164888083934784,0.4280571937561035,-0.0047485544346272945,-0.01087976898998022,1.619499921798706,0.08245664089918137,0.03384781628847122,-0.030285023152828217,0.04929542541503906,0.03545869141817093,0.026778561994433403,0.0,0.06072361767292023,92,0,488.1214904785156,-0.026778561994433403,900,900,900,900,0.0,0.0,0.0,1.5707963267948966
1729765555688772577,-0.0022784394677728415,0.0009486298076808453,-0.001359444810077548,-0.09363021701574326,0.03652961552143097,-9.789743423461914,0.009484409354627132,-0.2164888083934784,0.4280571937561035,-0.004757620394229889,-0.010884187184274197,1.6194967031478882,0.082574263215065,0.033911239355802536,-0.030088772997260094,0.049343474209308624,0.035452019423246384,0.026941344141960144,0.0,0.06075873598456383,92,0,488.1213073730469,-0.026941344141960144,900,900,900,900,0.0,0.0,0.0,1.5707963267948966
1729765555697526120,0.0006510340608656406,0.0012149461545050144,-0.0010931227589026093,-0.09123603254556656,0.06885134428739548,-9.79094123840332,0.009484409354627132,-0.2164888083934784,0.4280571937561035,-0.004759285598993301,-0.010873875580728054,1.6194816827774048,0.08270052820444107,0.03398287668824196,-0.02989175170660019,0.049034688621759415,0.03550315648317337,0.027022184804081917,0.0,0.06053820997476578,92,0,488.12109375,-0.027022184804081917,900,900,900,900,0.0,0.0,0.0,1.5707963267948966
1729765555705045111,0.001449983799830079,0.0001496821641921997,0.0005047719459980726,-0.09722153097391129,0.0185730941593647,-9.801714897155762,0.009484409354627132,-0.2164888083934784,0.4280571937561035,-0.004747461993247271,-0.010865716263651848,1.6194850206375122,0.08283532410860062,0.034062277525663376,-0.02969401143491268,0.04908778890967369,0.03548319265246391,0.0270945243537426,0.0,0.060569532215595245,92,0,488.12091064453125,-0.0270945243537426,900,900,900,900,0.0,0.0,0.0,1.5707963267948966
1729765555712378540,0.0009173525031656027,-0.002247163560241461,-0.0005604910547845066,-0.14390847086906433,0.06286583095788956,-9.823265075683594,0.009484409354627132,-0.2164888083934784,0.4280571937561035,-0.004745866637676954,-0.010873410850763321,1.6194851398468018,0.08297908306121826,0.03414824232459068,-0.029496842995285988,0.048880357295274734,0.03520269691944122,0.02694762870669365,0.0,0.06023719161748886,92,0,488.1207275390625,-0.02694762870669365,900,900,900,900,0.0,0.0,0.0,1.5707963267948966
1729765555719991646,-0.002544760936871171,-0.00011663348414003849,0.0010374020785093307,-0.07806791365146637,0.014981788583099842,-9.794534683227539,0.009484409354627132,-0.2164888083934784,0.4280571937561035,-0.00474217114970088,-0.010893427766859531,1.6194746494293213,0.08313062787055969,0.03423945978283882,-0.029300058260560036,0.04880158603191376,0.035092804580926895,0.02703811228275299,0.0,0.06010906770825386,92,0,488.1205139160156,-0.02703811228275299,900,900,900,900,0.0,0.0,0.0,1.5707963267948966
1729765555728552336,-0.0009468619246035814,0.0014812641311436892,0.0021026702597737312,-0.09243312478065491,0.03772670775651932,-9.810094833374023,0.009484409354627132,-0.2164888083934784,0.4280571937561035,-0.004766748286783695,-0.010881535708904266,1.6194919347763062,0.08329127728939056,0.03433827683329582,-0.02910253219306469,0.0487990640103817,0.03520546853542328,0.027102939784526825,0.0,0.06017286702990532,92,0,488.1203308105469,-0.027102939784526825,900,900,900,900,0.0,0.0,0.0,1.5707963267948966
1729765555739568382,-0.0006805454613640904,0.0025465269573032856,0.0007710884092375636,-0.09123603254556656,0.011390491388738155,-9.816081047058105,0.009484409354627132,-0.2164888083934784,0.4280571937561035,-0.004769606050103903,-0.010871215723454952,1.619494080543518,0.08346043527126312,0.03444461524486542,-0.028905026614665985,0.048867467790842056,0.03525274619460106,0.027033571153879166,0.0,0.060256000608205795,92,0,488.1201171875,-0.027033571153879166,900,900,900,900,0.0,0.0,0.0,1.5707963267948966
1729765555744241361,-0.0017458101501688361,0.0006823139265179634,-0.0010931225260719657,-0.06968820095062256,0.003010781481862068,-9.798124313354492,0.006102337036281824,-0.21687285602092743,0.430942177772522,-0.004785897675901651,-0.010858151130378246,1.619484782218933,0.08363942801952362,0.03455861657857895,-0.028707614168524742,0.049086980521678925,0.035436779260635376,0.027091139927506447,0.0,0.06054169684648514,92,0,488.11993408203125,-0.027091139927506447,900,900,900,900,0.0,0.0,0.0,1.5707963267948966
1729765555754012836,-0.0006805446464568377,0.0001496821641921997,-0.0013594402698799968,-0.11278383433818817,0.019770193845033646,-9.814885139465332,0.006102337036281824,-0.21687285602092743,0.430942177772522,-0.004792650230228901,-0.010858981870114803,1.6194744110107422,0.08382833003997803,0.034680403769016266,-0.028510376811027527,0.04924328252673149,0.03544933348894119,0.026998355984687805,0.0,0.06067582964897156,92,0,488.1197204589844,-0.026998355984687805,900,900,900,900,0.0,0.0,0.0,1.5707963267948966
1729765555761999576,-0.0033437081146985292,0.00041599967516958714,0.00023845478426665068,-0.07687080651521683,0.026952799409627914,-9.802913665771484,0.006102337036281824,-0.21687285602092743,0.430942177772522,-0.004812280181795359,-0.010854498483240604,1.6194684505462646,0.0840262696146965,0.034808386117219925,-0.028313348069787025,0.04932555556297302,0.035492729395627975,0.027025584131479263,0.0,0.06076795607805252,92,0,488.1195373535156,-0.027025584131479263,900,900,900,900,0.0,0.0,0.0,1.5707963267948966
1729765555770503511,0.00011840437218779698,0.00014968193136155605,-0.0010931214783340693,-0.0840534195303917,0.0185730941593647,-9.798124313354492,0.006102337036281824,-0.21687285602092743,0.430942177772522,-0.004821302369236946,-0.010848968289792538,1.619463324546814,0.08423276245594025,0.034943968057632446,-0.028116362169384956,0.04943480342626572,0.03567397594451904,0.027021171525120735,0.0,0.06096254661679268,92,0,488.11932373046875,-0.027021171525120735,900,900,900,900,0.0,0.0,0.0,1.5707963267948966
1729765555777022809,-0.00014791416469961405,-0.0006492668762803078,-0.0008268082747235894,-0.09243312478065491,0.04131801426410675,-9.800518035888672,0.006102337036281824,-0.21687285602092743,0.430942177772522,-0.004822824615985155,-0.010859462432563305,1.6194519996643066,0.08444729447364807,0.03508640453219414,-0.027915211394429207,0.049396175891160965,0.03570634499192238,0.02710188552737236,0.0,0.06095018610358238,92,0,488.119140625,-0.02710188552737236,900,900,900,900,0.0,0.0,0.0,1.5707963267948966
1729765555784971817,-0.0014794948510825634,0.002546526724472642,0.0023689852096140385,-0.10081283003091812,0.012587587349116802,-9.76101303100586,0.006102337036281824,-0.21687285602092743,0.430942177772522,-0.004831019323319197,-0.010841090232133865,1.6194649934768677,0.08466944843530655,0.035235293209552765,-0.027713291347026825,0.049508657306432724,0.03575071319937706,0.02732250653207302,0.0,0.06106734275817871,92,0,488.1189270019531,-0.02732250653207302,900,900,900,900,0.0,0.0,0.0,1.5707963267948966
1729765555793386606,0.00011840503429993987,-0.0009155832231044769,-0.0005604919861070812,-0.11278383433818817,0.03652961552143097,-9.781364440917969,0.008149686269462109,-0.21525126695632935,0.42916589975357056,-0.004830551333725452,-0.01084196474403143,1.6194645166397095,0.08490028232336044,0.035389408469200134,-0.027509018778800964,0.049638573080301285,0.03560049831867218,0.02759871818125248,0.0,0.0610850527882576,92,0,488.11871337890625,-0.02759871818125248,900,900,900,900,0.0,0.0,0.0,1.5707963267948966
1729765555800537757,-0.00281107472255826,-0.0009155832231044769,-0.0005604901234619319,-0.09722153097391129,0.0006165802478790283,-9.793336868286133,0.008149686269462109,-0.21525126695632935,0.42916589975357056,-0.004874500911682844,-0.010857162065804005,1.6194556951522827,0.0851384699344635,0.03554913029074669,-0.027303874492645264,0.04964771494269371,0.035699985921382904,0.027570879086852074,0.0,0.061150506138801575,92,0,488.1185302734375,-0.027570879086852074,900,900,900,900,0.0,0.0,0.0,1.5707963267948966
1729765555808823370,-0.0033437060192227364,-0.0003829509951174259,-0.0010931255528703332,-0.09841863065958023,0.006602083332836628,-9.758621215820312,0.008149686269462109,-0.21525126695632935,0.42916589975357056,-0.004888060502707958,-0.010858685709536076,1.619450569152832,0.08538487553596497,0.03571489825844765,-0.02709837816655636,0.04992320016026497,0.03572600334882736,0.027802150696516037,0.0,0.06138952076435089,92,0,488.1183166503906,-0.027802150696516037,900,900,900,900,0.0,0.0,0.0,1.5707963267948966
1729765555816613694,0.0006510341772809625,-0.0014482135884463787,-2.785550896078348e-05,-0.10320702940225601,0.03652960807085037,-9.765804290771484,0.008149686269462109,-0.21525126695632935,0.42916589975357056,-0.004893921781331301,-0.010864895768463612,1.619446039199829,0.08500337600708008,0.03537430614233017,-0.026949282735586166,0.0496402345597744,0.03546295315027237,0.02809632569551468,0.0,0.061006344854831696,92,0,488.1181640625,-0.02809632569551468,900,900,900,900,0.0,0.0,0.0,1.5707963267948966
1729765555826643169,-0.0001479152124375105,-0.0014482145197689533,0.0015700365183874965,-0.07806791365146637,0.007799186743795872,-9.767001152038574,0.008149686269462109,-0.21525126695632935,0.42916589975357056,-0.004883468616753817,-0.010873852297663689,1.619454026222229,0.08464287221431732,0.03505052998661995,-0.026796596124768257,0.04953613877296448,0.03538016229867935,0.028373515233397484,0.0,0.06087351590394974,92,0,488.1180114746094,-0.028373515233397484,900,900,900,900,0.0,0.0,0.0,1.5707963267948966
1729765555830654196,-0.0033437057863920927,-0.0006492678076028824,-0.0005604957113973796,-0.08884182572364807,0.024558603763580322,-9.787351608276367,0.008149686269462109,-0.21525126695632935,0.42916589975357056,-0.004890987183898687,-0.010873256251215935,1.619451642036438,0.08430399000644684,0.03474423289299011,-0.026636386290192604,0.04946574568748474,0.03533192351460457,0.028514686971902847,0.0,0.060788195580244064,92,0,488.11785888671875,-0.028514686971902847,900,900,900,900,0.0,0.0,0.0,1.5707963267948966
1729765555845376173,-0.000414228969020769,0.00014968262985348701,-0.0002941726997960359,-0.06729400157928467,0.047303520143032074,-9.777774810791016,0.008149686269462109,-0.21525126695632935,0.42916589975357056,-0.004895283840596676,-0.01086305733770132,1.6194493770599365,0.08398467302322388,0.03445480391383171,-0.026473892852663994,0.04912103712558746,0.0353340320289135,0.02868509851396084,0.0,0.06050925701856613,92,0,488.11767578125,-0.02868509851396084,900,900,900,900,0.0,0.0,0.0,1.5707963267948966
1729765555848720931,0.0022489267867058516,-0.0009155850857496262,0.0010374069679528475,-0.1056012362241745,0.028149902820587158,-9.75383186340332,0.008149686269462109,-0.21525126695632935,0.42916589975357056,-0.004867436829954386,-0.010865896940231323,1.619431734085083,0.0836852639913559,0.03418164700269699,-0.026309050619602203,0.049270059913396835,0.035132333636283875,0.02884688787162304,0.0,0.0605129711329937,92,0,488.1175231933594,-0.02884688787162304,900,900,900,900,0.0,0.0,0.0,1.5707963267948966
1729765555860370086,-0.00041422658250667155,-0.001448214054107666,-0.0008268108358606696,-0.11517804116010666,0.012587587349116802,-9.778970718383789,0.008149686269462109,-0.21525126695632935,0.42916589975357056,-0.004854624159634113,-0.010871626436710358,1.619429111480713,0.08340611308813095,0.033922985196113586,-0.026140911504626274,0.049076005816459656,0.03493308648467064,0.029204590246081352,0.0,0.060239315032958984,92,0,488.11737060546875,-0.029204590246081352,900,900,900,900,0.0,0.0,0.0,1.5707963267948966
1729765555867665793,-0.0017458117799833417,-0.0027797953225672245,0.0002384544350206852,-0.1355287730693817,0.0018136808648705482,-9.787351608276367,0.008149686269462109,-0.21525126695632935,0.42916589975357056,-0.0048567452467978,-0.010879270732402802,1.6194289922714233,0.08314580470323563,0.033678144216537476,-0.025969689711928368,0.049106188118457794,0.03456735238432884,0.02934214472770691,0.0,0.06005263701081276,92,0,488.1171875,-0.02934214472770691,900,900,900,900,0.0,0.0,0.0,1.5707963267948966
1729765555873042936,0.0006510306848213077,-0.0017145313322544098,-0.002158388029783964,-0.0840534195303917,0.06047162786126137,-9.778970718383789,0.0057579996064305305,-0.2162550687789917,0.42886918783187866,-0.004845577757805586,-0.01089596189558506,1.6193901300430298,0.08290395140647888,0.033446114510297775,-0.025796594098210335,0.04881119355559349,0.03438105061650276,0.02941420115530491,0.0,0.05970418080687523,92,0,488.11700439453125,-0.02941420115530491,900,900,900,900,0.0,0.0,0.0,1.5707963267948966
1729765555880183811,0.00011839772923849523,-0.0001166344154626131,0.0013037202879786491,-0.09003893285989761,0.053289029747247696,-9.749044418334961,0.0057579996064305305,-0.2162550687789917,0.42886918783187866,-0.004840254317969084,-0.010892913676798344,1.619394302368164,0.08267766237258911,0.033228371292352676,-0.025621358305215836,0.04844524711370468,0.034315191209316254,0.029708538204431534,0.0,0.059367284178733826,92,0,488.1168518066406,-0.029708538204431534,900,900,900,900,0.0,0.0,0.0,1.5707963267948966
1729765555888154618,0.00011840429942822084,0.0017475788481533527,-0.0008268081583082676,-0.10440413653850555,0.02096729725599289,-9.751436233520508,0.0057579996064305305,-0.2162550687789917,0.42886918783187866,-0.004829480778425932,-0.010869789868593216,1.6193939447402954,0.0824674740433693,0.033024419099092484,-0.02544199489057064,0.048329900950193405,0.03417353704571724,0.03012857213616371,0.0,0.059191297739744186,92,0,488.1166687011719,-0.03012857213616371,900,900,900,900,0.0,0.0,0.0,1.5707963267948966
1729765555895811163,-0.0012131781550124288,0.002013895194977522,0.0002384557737968862,-0.11038964241743088,0.0664571225643158,-9.758621215820312,0.0057579996064305305,-0.2162550687789917,0.42886918783187866,-0.004826099146157503,-0.010848792269825935,1.619390606880188,0.08227284252643585,0.03283299133181572,-0.02526221051812172,0.04791629686951637,0.03392636030912399,0.030488666146993637,0.0,0.05871089920401573,92,0,488.1164855957031,-0.030488666146993637,900,900,900,900,0.0,0.0,0.0,1.5707963267948966
1729765555903441171,-0.0001479113707318902,0.0009486307390034199,-0.002424705307930708,-0.06489980965852737,0.04610642045736313,-9.819671630859375,0.0057579996064305305,-0.2162550687789917,0.42886918783187866,-0.004815118853002787,-0.01084095984697342,1.6193640232086182,0.08209291845560074,0.03265417739748955,-0.0250796340405941,0.0477013997733593,0.03392758592963219,0.030522873625159264,0.0,0.0585363544523716,92,0,488.1163024902344,-0.030522873625159264,900,900,900,900,0.0,0.0,0.0,1.5707963267948966
1729765555911746666,-0.0001479130587540567,0.0014812625013291836,-0.0021583889611065388,-0.09003893285989761,0.028149902820587158,-9.818473815917969,0.0057579996064305305,-0.2162550687789917,0.42886918783187866,-0.004810898099094629,-0.010831711813807487,1.619354486465454,0.08192789554595947,0.03248945623636246,-0.024896705523133278,0.04752138629555702,0.033970657736063004,0.030381470918655396,0.0,0.05841479077935219,92,0,488.1161193847656,-0.030381470918655396,900,900,900,900,0.0,0.0,0.0,1.5707963267948966
1729765555919535724,0.00011840118531836197,-0.0011818981729447842,0.001037405338138342,-0.09243312478065491,0.011390491388738155,-9.811291694641113,0.0057579996064305305,-0.2162550687789917,0.42886918783187866,-0.0048020705580711365,-0.010829420760273933,1.6193546056747437,0.08177842199802399,0.032337501645088196,-0.024713877588510513,0.047498349100351334,0.03388684615492821,0.030264172703027725,0.0,0.05834733322262764,92,0,488.1159362792969,-0.030264172703027725,900,900,900,900,0.0,0.0,0.0,1.5707963267948966
1729765555933500833,0.0027815646026283503,-0.0030461098067462444,0.0010374084813520312,-0.0816592201590538,0.028149906545877457,-9.77418327331543,0.0057579996064305305,-0.2162550687789917,0.42886918783187866,-0.004777821712195873,-0.010848714038729668,1.6193628311157227,0.08164507150650024,0.03219795227050781,-0.024529946967959404,0.04749123379588127,0.03386961296200752,0.030421508476138115,0.0,0.05833153426647186,92,0,488.1157531738281,-0.030421508476138115,900,900,900,900,0.0,0.0,0.0,1.5707963267948966
1729765555941591198,0.003580512246116996,0.0009486312046647072,0.000771090853959322,-0.10919254273176193,0.03174120560288429,-9.798124313354492,0.008242222480475903,-0.21596062183380127,0.4302176535129547,-0.0047262986190617085,-0.010839467868208885,1.6193640232086182,0.08152652531862259,0.03207065910100937,-0.024343807250261307,0.04736446216702461,0.033756501972675323,0.030511092394590378,0.0,0.05816264823079109,92,0,488.1155700683594,-0.030511092394590378,900,900,900,900,0.0,0.0,0.0,1.5707963267948966
1729765555949384058,0.0011836702469736338,-0.0009155799634754658,-0.003223656676709652,-0.10440413653850555,0.01617889106273651,-9.77418327331543,0.008242222480475903,-0.21596062183380127,0.4302176535129547,-0.0047176554799079895,-0.010840464383363724,1.6193506717681885,0.08142270147800446,0.03195451572537422,-0.024156032130122185,0.047372303903102875,0.033629972487688065,0.030659401789307594,0.0,0.058095697313547134,92,0,488.1153869628906,-0.030659401789307594,900,900,900,900,0.0,0.0,0.0,1.5707963267948966
1729765555958981603,0.0003847168118227273,-0.0003829509951174259,-0.0008268069941550493,-0.10200992971658707,0.08680785447359085,-9.781364440917969,0.008242222480475903,-0.21596062183380127,0.4302176535129547,-0.004708787892013788,-0.010817411355674267,1.619322419166565,0.08133392035961151,0.031848516315221786,-0.02396315336227417,0.04738054424524307,0.033324189484119415,0.03087424859404564,0.0,0.05792596563696861,92,0,488.11517333984375,-0.03087424859404564,900,900,900,900,0.0,0.0,0.0,1.5707963267948966
1729765555967702662,0.003580512246116996,-0.00251347990706563,-0.0005604879697784781,-0.08046212047338486,0.07962524890899658,-9.777774810791016,0.008242222480475903,-0.21596062183380127,0.4302176535129547,-0.0046911523677408695,-0.01082506962120533,1.6193197965621948,0.0812574028968811,0.031752560287714005,-0.02376793883740902,0.046869680285453796,0.03326654061675072,0.03105214424431324,0.0,0.05747547000646591,92,0,488.114990234375,-0.03105214424431324,900,900,900,900,0.0,0.0,0.0,1.5707963267948966
1729765555974755630,-0.0022784462198615074,-0.002513481304049492,0.0015700276708230376,-0.09243312478065491,-0.004171825014054775,-9.758621215820312,0.008242222480475903,-0.21596062183380127,0.4302176535129547,-0.004684163257479668,-0.01084066741168499,1.6193244457244873,0.08119284361600876,0.031668148934841156,-0.023569943383336067,0.04690559208393097,0.03329731151461601,0.03136811405420303,0.0,0.05752256512641907,92,0,488.1147766113281,-0.03136811405420303,900,900,900,900,0.0,0.0,0.0,1.5707963267948966
1729765555982575625,-0.0014794919406995177,-0.001980847679078579,0.0013037226162850857,-0.07806791365146637,0.06765422970056534,-9.755029678344727,0.008242222480475903,-0.21596062183380127,0.4302176535129547,-0.004694805480539799,-0.010853351093828678,1.6193386316299438,0.08114262670278549,0.031594645231962204,-0.02336830273270607,0.046797215938568115,0.033287666738033295,0.03174120560288429,0.0,0.05742863565683365,92,0,488.1145935058594,-0.03174120560288429,900,900,900,900,0.0,0.0,0.0,1.5707963267948966
1729765555987728128,-0.0025447586085647345,-0.0017145299352705479,-0.0002941751736216247,-0.07926500588655472,0.04131801426410675,-9.780167579650879,0.008242222480475903,-0.21596062183380127,0.4302176535129547,-0.004712129011750221,-0.010864312760531902,1.6193349361419678,0.08110328018665314,0.03153279796242714,-0.023163294419646263,0.04647854343056679,0.03343277797102928,0.031976956874132156,0.0,0.057253871113061905,92,0,488.1143798828125,-0.031976956874132156,900,900,900,900,0.0,0.0,0.0,1.5707963267948966
1729765555997667276,0.00038472076994366944,-0.003845059312880039,0.0021026707254350185,-0.10320702940225601,0.0185730941593647,-9.762210845947266,0.008242222480475903,-0.21596062183380127,0.4302176535129547,-0.0047078002244234085,-0.01088722050189972,1.6193526983261108,0.08107632398605347,0.03148149326443672,-0.022955654188990593,0.04652807489037514,0.03332781046628952,0.032250456511974335,0.0,0.057232897728681564,92,0,488.1141662597656,-0.032250456511974335,900,900,900,900,0.0,0.0,0.0,1.5707963267948966
1729765556004883700,0.0006510416278615594,-0.000382949598133564,-0.004022601526230574,-0.08046212047338486,0.052091922610998154,-9.750240325927734,0.008242222480475903,-0.21596062183380127,0.4302176535129547,-0.00469605578109622,-0.010895708575844765,1.6193305253982544,0.08106138557195663,0.03143998980522156,-0.022744474932551384,0.04628894850611687,0.03333745151758194,0.03264918550848961,0.0,0.05704430118203163,92,0,488.11395263671875,-0.03264918550848961,900,900,900,900,0.0,0.0,0.0,1.5707963267948966
1729765556009833167,0.0022489293478429317,-0.00011663674376904964,-0.0026910193264484406,-0.07447661459445953,0.03054410219192505,-9.802913665771484,0.008242222480475903,-0.21596062183380127,0.4302176535129547,-0.004680384881794453,-0.010892820544540882,1.6192988157272339,0.08105765283107758,0.03140919655561447,-0.02253013290464878,0.046213168650865555,0.03346734493970871,0.032772842794656754,0.0,0.057058919221162796,92,0,488.1137390136719,-0.032772842794656754,900,900,900,900,0.0,0.0,0.0,1.5707963267948966
1729765556027449609,0.0014499853132292628,-0.0014482131227850914,-0.0024247062392532825,-0.11757224798202515,0.04490932077169418,-9.782562255859375,0.007275810465216637,-0.2164393812417984,0.42872846126556396,-0.004663172643631697,-0.010898662731051445,1.6192830801010132,0.08106555044651031,0.03138859570026398,-0.022304745391011238,0.04611438512802124,0.03337584063410759,0.03282057121396065,0.0,0.05692524462938309,92,0,488.113525390625,-0.03282057121396065,900,900,900,900,0.0,0.0,0.0,1.5707963267948966
1729765556031048929,-0.0025447627995163202,-0.0006492645479738712,-2.7863949071615934e-05,-0.1295432448387146,0.052091922610998154,-9.800518035888672,0.007275810465216637,-0.2164393812417984,0.42872846126556396,-0.004669813439249992,-0.010903690941631794,1.6192697286605835,0.0810839906334877,0.0313756950199604,-0.02207755297422409,0.045906465500593185,0.03306647390127182,0.0329761728644371,0.0,0.05657557025551796,92,0,488.11328125,-0.0329761728644371,900,900,900,900,0.0,0.0,0.0,1.5707963267948966
1729765556040439079,0.0009173528524115682,-0.000915581826120615,0.0007710921345278621,-0.09722153097391129,0.004207882098853588,-9.765804290771484,0.007275810465216637,-0.2164393812417984,0.42872846126556396,-0.004668544512242079,-0.010910994373261929,1.6192786693572998,0.08111363649368286,0.03137024864554405,-0.02184932306408882,0.04603549465537071,0.032950546592473984,0.03311188519001007,0.0,0.0566127635538578,92,0,488.1130676269531,-0.03311188519001007,900,900,900,900,0.0,0.0,0.0,1.5707963267948966
1729765556048802928,-0.0057405512779951096,0.0006823122967034578,-0.0008268094388768077,-0.09602442383766174,0.06286583095788956,-9.777774810791016,0.007275810465216637,-0.2164393812417984,0.42872846126556396,-0.004700502846390009,-0.010900478810071945,1.6192750930786133,0.08115418255329132,0.03137357160449028,-0.02161853201687336,0.04576801136136055,0.032932039350271225,0.0333816260099411,0.0,0.05638466402888298,92,0,488.1128234863281,-0.0333816260099411,900,900,900,900,0.0,0.0,0.0,1.5707963267948966
1729765556054643737,-0.0012131731491535902,0.0017475754721090198,-0.004821550566703081,-0.08884182572364807,0.014981788583099842,-9.749044418334961,0.007275810465216637,-0.2164393812417984,0.42872846126556396,-0.004716453142464161,-0.010895654559135437,1.6192394495010376,0.08120471239089966,0.031385697424411774,-0.02138475887477398,0.04580703750252724,0.03295420482754707,0.03378766030073166,0.0,0.05642928555607796,92,0,488.11260986328125,-0.03378766030073166,900,900,900,900,0.0,0.0,0.0,1.5707963267948966
1729765556064132381,-0.0025447593070566654,0.00201389635913074,-0.0026910207234323025,-0.12475486099720001,0.03772670775651932,-9.780167579650879,0.007275810465216637,-0.2164393812417984,0.42872846126556396,-0.004731738939881325,-0.010873943567276001,1.6192134618759155,0.08126652985811234,0.03140601888298988,-0.021148014813661575,0.04582928493618965,0.0327734500169754,0.03398594632744789,0.0,0.05634201318025589,92,0,488.11236572265625,-0.03398594632744789,900,900,900,900,0.0,0.0,0.0,1.5707963267948966
1729765556071212027,-0.0006805465091019869,0.0009486307390034199,-0.0018920720322057605,-0.09602442383766174,0.04131801426410675,-9.795731544494629,0.007275810465216637,-0.2164393812417984,0.42872846126556396,-0.0047377776354551315,-0.01086196955293417,1.6191939115524292,0.08133801072835922,0.03143327683210373,-0.020909469574689865,0.0456671342253685,0.03266359865665436,0.03410331904888153,0.0,0.05614621937274933,92,0,488.11212158203125,-0.03410331904888153,900,900,900,900,0.0,0.0,0.0,1.5707963267948966
1729765556080296795,0.0006510352250188589,0.0020138947293162346,-0.0010931232245638967,-0.08644761145114899,0.03533250465989113,-9.787351608276367,0.006855811923742294,-0.218386709690094,0.4302075505256653,-0.004738830495625734,-0.010844800621271133,1.6191821098327637,0.08141887933015823,0.03146882727742195,-0.02069721184670925,0.045592211186885834,0.03273745998740196,0.034211549907922745,0.0,0.05612834542989731,92,0,488.1119079589844,-0.034211549907922745,900,900,900,900,0.0,0.0,0.0,1.5707963267948966
1729765556088631023,0.0009173507569357753,-0.0009155836887657642,0.0005047707818448544,-0.09841863065958023,0.05089481547474861,-9.798124313354492,0.006855811923742294,-0.218386709690094,0.4302075505256653,-0.004726383835077286,-0.010849026963114738,1.6191821098327637,0.08150947839021683,0.031512755900621414,-0.02048298344016075,0.04553426429629326,0.03273896127939224,0.034276384860277176,0.0,0.056082163006067276,92,0,488.1116943359375,-0.034276384860277176,900,900,900,900,0.0,0.0,0.0,1.5707963267948966
1729765556096300239,0.0003847220214083791,-0.002247163560241461,-0.0026910211890935898,-0.10440413653850555,0.02336149662733078,-9.802913665771484,0.006855811923742294,-0.218386709690094,0.4302075505256653,-0.00472248625010252,-0.010861984454095364,1.6191661357879639,0.08160906285047531,0.031563930213451385,-0.020267559215426445,0.045500513166189194,0.03263147547841072,0.03424973413348198,0.0,0.05599205195903778,92,0,488.1114807128906,-0.03424973413348198,900,900,900,900,0.0,0.0,0.0,1.5707963267948966
1729765556104070816,-0.0017458128277212381,-0.0014482131227850914,-2.786167897284031e-05,-0.07327950745820999,-0.0017776219174265862,-9.786154747009277,0.006855811923742294,-0.218386709690094,0.4302075505256653,-0.004732695873826742,-0.01087715569883585,1.6191579103469849,0.08171912282705307,0.031622957438230515,-0.020050648599863052,0.04573594406247139,0.032793931663036346,0.034361861646175385,0.0,0.056278046220541,92,0,488.11126708984375,-0.034361861646175385,900,900,900,900,0.0,0.0,0.0,1.5707963267948966
1729765556110939280,0.00011840177467092872,-0.0006492664106190205,0.0007710896898061037,-0.08285631984472275,0.026952799409627914,-9.758621215820312,0.006855811923742294,-0.218386709690094,0.4302075505256653,-0.004734646063297987,-0.010882802307605743,1.6191593408584595,0.08183972537517548,0.03169088065624237,-0.01983085833489895,0.045792970806360245,0.0329536497592926,0.03469407930970192,0.0,0.056417543441057205,92,0,488.1110534667969,-0.03469407930970192,900,900,900,900,0.0,0.0,0.0,1.5707963267948966
1729765556118527411,0.002248933305963874,-0.00011663325130939484,0.0005047739250585437,-0.10919254273176193,0.03772670775651932,-9.801714897155762,0.006855811923742294,-0.218386709690094,0.4302075505256653,-0.004720799159258604,-0.010884257964789867,1.619165062904358,0.08196938782930374,0.03176615387201309,-0.019608421251177788,0.0457526370882988,0.03284648433327675,0.034726597368717194,0.0,0.05632224678993225,92,0,488.11083984375,-0.034726597368717194,900,900,900,900,0.0,0.0,0.0,1.5707963267948966
1729765556126573625,0.002515248255804181,0.0004159982781857252,-0.0002941754355560988,-0.06370270997285843,0.02575569972395897,-9.764606475830078,0.006855811923742294,-0.218386709690094,0.4302075505256653,-0.004703785292804241,-0.010878379456698895,1.6191622018814087,0.08210789412260056,0.03184876963496208,-0.01938357762992382,0.04579455405473709,0.03304946422576904,0.0350412018597126,0.0,0.056474845856428146,92,0,488.110595703125,-0.0350412018597126,900,900,900,900,0.0,0.0,0.0,1.5707963267948966
1729765556134965661,0.00011840302613563836,0.0006823141593486071,-0.0005604950711131096,-0.07687080651521683,0.038923803716897964,-9.79094123840332,0.006855811923742294,-0.218386709690094,0.4302075505256653,-0.004690032918006182,-0.010875777341425419,1.6191562414169312,0.0822552815079689,0.031939953565597534,-0.019156165421009064,0.045793317258358,0.033226680010557175,0.035121239721775055,0.0,0.056577734649181366,92,0,488.1103820800781,-0.035121239721775055,900,900,900,900,0.0,0.0,0.0,1.5707963267948966
1729765556145270185,0.0011836669873446226,-0.0035787420347332954,0.0015700430376455188,-0.09722153097391129,0.012587587349116802,-9.771787643432617,0.006855811923742294,-0.218386709690094,0.4302075505256653,-0.004692485090345144,-0.010893416590988636,1.619163155555725,0.08241118490695953,0.03203883394598961,-0.01891389861702919,0.04588773101568222,0.033280711621046066,0.03536213934421539,0.0,0.05668588727712631,92,0,488.1101379394531,-0.03536213934421539,900,900,900,900,0.0,0.0,0.0,1.5707963267948966
1729765556153049325,-0.0033437057863920927,0.0012149468529969454,-0.0024247069377452135,-0.056520093232393265,0.013784690760076046,-9.781364440917969,0.006855811923742294,-0.218386709690094,0.4302075505256653,-0.004692740738391876,-0.010901575908064842,1.6191571950912476,0.08257602900266647,0.032144904136657715,-0.01866855099797249,0.04596002399921417,0.03345127031207085,0.035719674080610275,0.0,0.056844621896743774,92,0,488.1098937988281,-0.035719674080610275,900,900,900,900,0.0,0.0,0.0,1.5707963267948966
1729765556160894671,-0.0014794953167438507,0.0006823146250098944,-0.0010931221768260002,-0.05771719664335251,0.017375990748405457,-9.79213809967041,0.006855811923742294,-0.218386709690094,0.4302075505256653,-0.004712122492492199,-0.010893840342760086,1.619141697883606,0.08274976164102554,0.03225957602262497,-0.018420498818159103,0.04609280824661255,0.033787261694669724,0.03585943579673767,0.0,0.05715002864599228,92,0,488.1096496582031,-0.03585943579673767,900,900,900,900,0.0,0.0,0.0,1.5707963267948966
1729765556167222679,0.001449985895305872,-0.000382949598133564,-0.0005604885518550873,-0.11278383433818817,0.03413540497422218,-9.787351608276367,0.006896500010043383,-0.21816794574260712,0.43011072278022766,-0.004715803544968367,-0.010908407159149647,1.6191476583480835,0.08293183147907257,0.032382115721702576,-0.01817108877003193,0.046078432351350784,0.03378429636359215,0.03593293949961662,0.0,0.05713668465614319,92,0,488.109375,-0.03593293949961662,900,900,900,900,0.0,0.0,0.0,1.5707963267948966
1729765556175204021,0.00038471881998702884,0.0020138947293162346,-0.00029417616315186024,-0.06968820095062256,0.026952799409627914,-9.799320220947266,0.006896500010043383,-0.21816794574260712,0.43011072278022766,-0.004708750639110804,-0.01090174075216055,1.619143009185791,0.0831214040517807,0.03251030296087265,-0.017920298501849174,0.04611165449023247,0.0338483490049839,0.03601735457777977,0.0,0.057201359421014786,92,0,488.109130859375,-0.03601735457777977,900,900,900,900,0.0,0.0,0.0,1.5707963267948966
1729765556182665576,-0.0017458066577091813,-0.003312427084892988,0.0010374082485213876,-0.06849110126495361,0.010193386115133762,-9.800518035888672,0.006896500010043383,-0.21816794574260712,0.43011072278022766,-0.004725310485810041,-0.010913134552538395,1.619152545928955,0.08331884443759918,0.03264633193612099,-0.017668619751930237,0.04622403904795647,0.03415421396493912,0.036033328622579575,0.0,0.05747322738170624,92,0,488.10888671875,-0.036033328622579575,900,900,900,900,0.0,0.0,0.0,1.5707963267948966
1729765556190135031,0.00011840248043881729,-0.0035787438973784447,-0.0010931224096566439,-0.10440412908792496,0.03174120560288429,-9.786154747009277,0.006896500010043383,-0.21816794574260712,0.43011072278022766,-0.004727817140519619,-0.01094380859285593,1.6191420555114746,0.08352485299110413,0.032789625227451324,-0.017415761947631836,0.04636145010590553,0.03420572355389595,0.036161839962005615,0.0,0.057614367455244064,92,0,488.108642578125,-0.036161839962005615,900,900,900,900,0.0,0.0,0.0,1.5707963267948966
1729765556198392267,-0.0009468614589422941,0.0009486302733421326,0.001836352632381022,-0.11996646225452423,0.02336150035262108,-9.799320220947266,0.006896500010043383,-0.21816794574260712,0.43011072278022766,-0.004733621142804623,-0.01094702910631895,1.6191658973693848,0.08373814076185226,0.03293770179152489,-0.017139796167612076,0.04634374380111694,0.033976856619119644,0.03612513095140457,0.0,0.05746450647711754,92,0,488.1083679199219,-0.03612513095140457,900,900,900,900,0.0,0.0,0.0,1.5707963267948966
1729765556207126402,0.0011836683843284845,0.0006823157891631126,0.0013037228491157293,-0.1163751408457756,0.029347002506256104,-9.782561302185059,0.006240650080144405,-0.21499161422252655,0.4278947114944458,-0.004729130305349827,-0.010944213718175888,1.6191706657409668,0.08395864814519882,0.033089715987443924,-0.016863765195012093,0.04643445089459419,0.03383952006697655,0.03623392432928085,0.0,0.057456690818071365,92,0,488.10809326171875,-0.03623392432928085,900,900,900,900,0.0,0.0,0.0,1.5707963267948966
1729765556214476294,0.0011836682679131627,0.00014968193136155605,0.0010374033590778708,-0.0948273241519928,0.05807742103934288,-9.776577949523926,0.006240650080144405,-0.21499161422252655,0.4278947114944458,-0.004715870600193739,-0.010940714739263058,1.6191788911819458,0.08418533951044083,0.03324630856513977,-0.0165863074362278,0.04624306783080101,0.03381361812353134,0.03645309433341026,0.0,0.05728683993220329,92,0,488.1078186035156,-0.03645309433341026,900,900,900,900,0.0,0.0,0.0,1.5707963267948966
1729765556221603652,-0.0022527880501002073,-0.00036308751441538334,0.0010283857118338346,-0.12238402664661407,0.043719228357076645,-9.766727447509766,0.006240650080144405,-0.21499161422252655,0.4278947114944458,-0.0047281417064368725,-0.010940413922071457,1.6191850900650024,0.08403130620718002,0.03292248025536537,-0.016520045697689056,0.04600656032562256,0.033486124128103256,0.03661143034696579,0.0,0.05690275877714157,92,0,488.10772705078125,-0.03661143034696579,900,900,900,900,0.0,0.0,0.0,1.5707963267948966
1729765556231912192,0.00041037279879674315,0.0015011262148618698,-3.68758337572217e-05,-0.08766807615756989,0.08082936704158783,-9.76193618774414,0.006240650080144405,-0.21499161422252655,0.4278947114944458,-0.004725852515548468,-0.010932416655123234,1.619184970855713,0.083891361951828,0.032613739371299744,-0.016446536406874657,0.04564127326011658,0.03329716995358467,0.036898624151945114,0.0,0.056496258825063705,92,0,488.107666015625,-0.036898624151945114,900,900,900,900,0.0,0.0,0.0,1.5707963267948966
1729765556237673742,0.0001440574269508943,0.00230007478967309,0.0010283873416483402,-0.11520141363143921,0.07723807543516159,-9.771513938903809,0.006240650080144405,-0.21499161422252655,0.4278947114944458,-0.004718272481113672,-0.010902009904384613,1.6191898584365845,0.08376318961381912,0.03232056647539139,-0.016366325318813324,0.04512254148721695,0.03306415304541588,0.03703923523426056,0.0,0.05593998730182648,92,0,488.1075744628906,-0.03703923523426056,900,900,900,900,0.0,0.0,0.0,1.5707963267948966
1729765556246243110,-0.00012225886166561395,0.0001695456448942423,0.001827335450798273,-0.09724490344524384,0.00900330487638712,-9.776304244995117,0.006240650080144405,-0.21499161422252655,0.4278947114944458,-0.004712906200438738,-0.010893911123275757,1.6192048788070679,0.08364792913198471,0.03204150125384331,-0.016279814764857292,0.04508593678474426,0.032812315970659256,0.03719891980290413,0.0,0.055761903524398804,92,0,488.10748291015625,-0.03719891980290413,900,900,900,900,0.0,0.0,0.0,1.5707963267948966
1729765556254572007,0.0006766908336430788,-0.0019609841983765364,-0.0011021406389772892,-0.05055795609951019,0.04132503271102905,-9.813413619995117,0.006240650080144405,-0.21499161422252655,0.4278947114944458,-0.004705165512859821,-0.010894411243498325,1.619199514389038,0.08354680240154266,0.03177819028496742,-0.01618804596364498,0.044888097792863846,0.03297887742519379,0.037116385996341705,0.0,0.05570051446557045,92,0,488.1073913574219,-0.037116385996341705,900,900,900,900,0.0,0.0,0.0,1.5707963267948966
1729765556261389429,-0.0025191083550453186,0.0017674413975328207,0.0018273310270160437,-0.09844200313091278,0.0066091036424040794,-9.77989387512207,0.006240650080144405,-0.21499161422252655,0.4278947114944458,-0.004709265194833279,-0.010888434946537018,1.6192083358764648,0.08345958590507507,0.031531184911727905,-0.0160856693983078,0.04496562480926514,0.03292930871248245,0.037147123366594315,0.0,0.05573371425271034,92,0,488.1072998046875,-0.037147123366594315,900,900,900,900,0.0,0.0,0.0,1.5707963267948966
1729765556269865607,-0.0006548909586854279,0.000968491192907095,-0.0032326679211109877,-0.0960477888584137,0.022171415388584137,-9.778697967529297,0.006240650080144405,-0.21499161422252655,0.4278947114944458,-0.004719448741525412,-0.010866580531001091,1.6191914081573486,0.08338718116283417,0.031298328191041946,-0.015978239476680756,0.04503076896071434,0.032791804522275925,0.03724653273820877,0.0,0.0557052306830883,92,0,488.1072082519531,-0.03724653273820877,900,900,900,900,0.0,0.0,0.0,1.5707963267948966
1729765556277318495,0.0014756354503333569,-0.0014283510390669107,-0.0005695106228813529,-0.08647099137306213,0.005412003956735134,-9.777501106262207,0.006240650080144405,-0.21499161422252655,0.4278947114944458,-0.004700911231338978,-0.010864914394915104,1.6191810369491577,0.08332875370979309,0.031079458072781563,-0.015865352004766464,0.04510575905442238,0.032750822603702545,0.03741185739636421,0.0,0.05574177950620651,92,0,488.1070861816406,-0.03741185739636421,900,900,900,900,0.0,0.0,0.0,1.5707963267948966
1729765556285504233,0.0020082704722881317,-0.00036308704875409603,-0.0008358238846994936,-0.06612026691436768,0.02576271817088127,-9.800244331359863,0.006240650080144405,-0.21499161422252655,0.4278947114944458,-0.004681323654949665,-0.010867467150092125,1.6191750764846802,0.0832844153046608,0.030874913558363914,-0.015747617930173874,0.0451614074409008,0.032827381044626236,0.03740846738219261,0.0,0.055831797420978546,92,0,488.1069641113281,-0.03740846738219261,900,900,900,900,0.0,0.0,0.0,1.5707963267948966
1729765556297947658,-0.00038857472827658057,0.0012348107993602753,-0.002167407190427184,-0.07449997961521149,0.05808443948626518,-9.78228759765625,0.006240650080144405,-0.21499161422252655,0.4278947114944458,-0.00467438530176878,-0.010851934552192688,1.6191595792770386,0.08325167000293732,0.030684756115078926,-0.015625707805156708,0.04484036564826965,0.03286101669073105,0.0374772734940052,0.0,0.055592309683561325,92,0,488.1068420410156,-0.0374772734940052,900,900,900,900,0.0,0.0,0.0,1.5707963267948966
1729765556305522811,0.00041037070332095027,0.001767442561686039,0.0023599688429385424,-0.056543461978435516,0.018580112606287003,-9.789470672607422,0.006240650080144405,-0.21499161422252655,0.4278947114944458,-0.004667672328650951,-0.010834142565727234,1.619167685508728,0.08322978764772415,0.030509069561958313,-0.015499107539653778,0.04477030411362648,0.03306920826435089,0.03756095841526985,0.0,0.055659256875514984,92,0,488.1067199707031,-0.03756095841526985,900,900,900,900,0.0,0.0,0.0,1.5707963267948966
