Timestamp_ns,Gyro_X,Gyro_Y,Gyro_Z,Acc_X,Acc_Y,Acc_Z,Mag_X,Mag_Y,Mag_Z,Roll,Pitch,Yaw,Pos_X,Pos_Y,Pos_Z,Vel_X,Vel_Y,Vel_Z,Airspeed,Groundspeed,Heading,Throttle,Alt,Climb,Servo1_Raw,Servo2_Raw,Servo3_Raw,Servo4_Raw,Thrust_Vector_X,Thrust_Vector_Y,Thrust_Vector_Z,Thrust_Angle_From_Z
1729765573564495767,0.0024811457842588425,0.0009338583331555128,0.00042355607729405165,-0.1335374265909195,-0.000544130802154541,-9.780326843261719,0.011082720942795277,-0.21027033030986786,0.43343088030815125,-0.0011931764893233776,-0.01257309690117836,1.6131724119186401,0.06130918115377426,-0.049533311277627945,0.10788435488939285,0.0315341018140316,-0.06345652043819427,0.0600677989423275,0.0,0.07085993140935898,92,0,487.98333740234375,-0.0600677989423275,900,900,900,900,0.0,0.0,0.0,1.5707963267948966
1729765573571714513,0.0008832497987896204,-0.0009303553961217403,-0.0014406603295356035,-0.14072003960609436,-0.013712243176996708,-9.817438125610352,0.011082720942795277,-0.21027033030986786,0.43343088030815125,-0.0011827896814793348,-0.012578083202242851,1.6131656169891357,0.06152956187725067,-0.04974127933382988,0.10803187638521194,0.03174114599823952,-0.06343389302492142,0.05993682146072388,0.0,0.07093207538127899,92,0,487.9831848144531,-0.05993682146072388,900,900,900,900,0.0,0.0,0.0,1.5707963267948966
1729765573579106190,-0.0017799135530367494,0.0009338576346635818,0.0009561842307448387,-0.15747946500778198,-0.00892383698374033,-9.77194595336914,0.011082720942795277,-0.21027033030986786,0.43343088030815125,-0.001190677867271006,-0.012575360015034676,1.6131725311279297,0.06175282970070839,-0.04996117576956749,0.10818019509315491,0.031796783208847046,-0.06355896592140198,0.059982236474752426,0.0,0.07106882333755493,92,0,487.9830322265625,-0.059982236474752426,900,900,900,900,0.0,0.0,0.0,1.5707963267948966
1729765573584806057,-0.0007146451389417052,-0.0030608843080699444,0.00095618877094239,-0.1550852656364441,-0.022091947495937347,-9.79349422454834,0.011082720942795277,-0.21027033030986786,0.43343088030815125,-0.0011996922548860312,-0.01259052474051714,1.6131846904754639,0.06197992339730263,-0.050193317234516144,0.10834050923585892,0.03211706504225731,-0.06367743015289307,0.06006021797657013,0.0,0.07131844758987427,92,0,487.9828796386719,-0.06006021797657013,900,900,900,900,0.0,0.0,0.0,1.5707963267948966
1729765573593273851,-0.001779912388883531,0.0009338576346635818,-0.00037539697950705886,-0.10600411891937256,-0.05321657285094261,-9.786314010620117,0.011082720942795277,-0.21027033030986786,0.43343088030815125,-0.0012106815120205283,-0.012593792751431465,1.6131850481033325,0.06221208721399307,-0.05043640360236168,0.1085117906332016,0.03260834142565727,-0.06350412964820862,0.06008327379822731,0.0,0.07138682156801224,92,0,487.9826965332031,-0.06008327379822731,900,900,900,900,0.0,0.0,0.0,1.5707963267948966
1729765573600955696,-0.0015135970897972584,0.001200174679979682,0.00015723821707069874,-0.1311432272195816,0.03896019235253334,-9.794692993164062,0.011082720942795277,-0.21027033030986786,0.43343088030815125,-0.0012259002542123199,-0.012585176154971123,1.6131832599639893,0.062447868287563324,-0.05068871006369591,0.10869379341602325,0.03249536082148552,-0.0633949413895607,0.06008462235331535,0.0,0.07123810052871704,92,0,487.9825134277344,-0.06008462235331535,900,900,900,900,0.0,0.0,0.0,1.5707963267948966
1729765573609352404,8.4299361333251e-05,0.005194916855543852,0.002287766430526972,-0.1419171541929245,0.016215283423662186,-9.767159461975098,0.011082720942795277,-0.21027033030986786,0.43343088030815125,-0.0012286317069083452,-0.01254868134856224,1.6132023334503174,0.06268433481454849,-0.05095091834664345,0.10888656228780746,0.03240125626325607,-0.06337501108646393,0.06024148687720299,0.0,0.07117747515439987,92,0,487.9823303222656,-0.06024148687720299,900,900,900,900,0.0,0.0,0.0,1.5707963267948966
1729765573620890995,8.430215530097485e-05,0.00120017328299582,0.00015723746037110686,-0.15747946500778198,0.021003685891628265,-9.78990364074707,0.011082720942795277,-0.21027033030986786,0.43343088030815125,-0.0012247785925865173,-0.012526985257863998,1.613206386566162,0.06292221695184708,-0.05122425779700279,0.10909052938222885,0.03235563635826111,-0.06358886510133743,0.06033167988061905,0.0,0.07134725898504257,92,0,487.98211669921875,-0.06033167988061905,900,900,900,900,0.0,0.0,0.0,1.5707963267948966
1729765573624199011,-0.0012472800444811583,-0.0011966722086071968,-0.00010907946852967143,-0.12515774369239807,-0.014909341931343079,-9.765962600708008,0.011082720942795277,-0.21027033030986786,0.43343088030815125,-0.0012325758580118418,-0.012538204900920391,1.6132051944732666,0.06316221505403519,-0.05150800943374634,0.10930515825748444,0.032523803412914276,-0.06351573020219803,0.060519762337207794,0.0,0.0713585764169693,92,0,487.9819030761719,-0.060519762337207794,900,900,900,900,0.0,0.0,0.0,1.5707963267948966
1729765573632328888,8.430008892901242e-05,0.00040122587233781815,0.0006898712599650025,-0.11917223036289215,-0.006529637612402439,-9.758779525756836,0.011082720942795277,-0.21027033030986786,0.43343088030815125,-0.0012372268829494715,-0.012536536902189255,1.6132079362869263,0.06340521574020386,-0.051800649613142014,0.10953112691640854,0.032662320882081985,-0.06340084969997406,0.06078805401921272,0.0,0.07131966948509216,92,0,487.981689453125,-0.06078805401921272,900,900,900,900,0.0,0.0,0.0,1.5707963267948966
1729765573640915092,-0.00044833210995420814,0.0025317533873021603,0.003086715005338192,-0.12036934494972229,-0.016106443479657173,-9.811450958251953,0.011082720942795277,-0.21027033030986786,0.43343088030815125,-0.001236763666383922,-0.012516655959188938,1.6132277250289917,0.06365087628364563,-0.05210152640938759,0.10975396633148193,0.03280947357416153,-0.0632488876581192,0.060773685574531555,0.0,0.0712522491812706,92,0,487.9814758300781,-0.060773685574531555,900,900,900,900,0.0,0.0,0.0,1.5707963267948966
1729765573650512587,-0.0023125428706407547,0.00040122377686202526,0.00042355433106422424,-0.14909973740577698,-0.020894847810268402,-9.807861328125,0.011082720942795277,-0.21027033030986786,0.43343088030815125,-0.001253198366612196,-0.012509504333138466,1.6132358312606812,0.06389998644590378,-0.052411314100027084,0.1099853664636612,0.03308326378464699,-0.06333458423614502,0.0606539361178875,0.0,0.07145468890666962,92,0,487.9812316894531,-0.0606539361178875,900,900,900,900,0.0,0.0,0.0,1.5707963267948966
1729765573657095920,-0.002046226989477873,0.0006675408221781254,-0.0011743427021428943,-0.1335374265909195,-0.000544130802154541,-9.800677299499512,0.004565457813441753,-0.21522273123264313,0.42803239822387695,-0.0012715900084003806,-0.01250444259494543,1.6132299900054932,0.0641527771949768,-0.05273038148880005,0.11022517830133438,0.033287789672613144,-0.0633273795247078,0.060595687478780746,0.0,0.07154323160648346,92,0,487.9809875488281,-0.060595687478780746,900,900,900,900,0.0,0.0,0.0,1.5707963267948966
1729765573664576782,0.00035061579546891153,-0.0033272001892328262,-0.0006417089607566595,-0.14550845324993134,-0.007726736832410097,-9.801874160766602,0.008496522903442383,-0.20881380140781403,0.43244174122810364,-0.0012718437938019633,-0.012521711178123951,1.6132218837738037,0.06440787762403488,-0.05305841192603111,0.11047374457120895,0.033372003585100174,-0.06340552866458893,0.06059177592396736,0.0,0.07165160030126572,92,0,487.9807434082031,-0.06059177592396736,900,900,900,900,0.0,0.0,0.0,1.5707963267948966
1729765573672316102,0.00035061954986304045,0.000134909525513649,-0.0022396082058548927,-0.1287490278482437,0.016215283423662186,-9.794692993164062,0.008496522903442383,-0.20881380140781403,0.43244174122810364,-0.0012656389735639095,-0.012528300285339355,1.613208293914795,0.06466564536094666,-0.0533953458070755,0.11073043197393417,0.0334627740085125,-0.0634130984544754,0.06052443012595177,0.0,0.07170061022043228,92,0,487.9804992675781,-0.06052443012595177,900,900,900,900,0.0,0.0,0.0,1.5707963267948966
1729765573679813972,-0.002578863874077797,-0.0017293011769652367,-0.0011743416544049978,-0.14550845324993134,0.030580490827560425,-9.793495178222656,0.008496522903442383,-0.20881380140781403,0.43244174122810364,-0.0012849393533542752,-0.012533804401755333,1.6131936311721802,0.0649237334728241,-0.05374075472354889,0.11099587380886078,0.033212725073099136,-0.06349297612905502,0.06060703843832016,0.0,0.0716550275683403,92,0,487.980224609375,-0.06060703843832016,900,900,900,900,0.0,0.0,0.0,1.5707963267948966
1729765573687501519,-0.0015135961584746838,0.0009338576346635818,-0.00010908016702160239,-0.12755192816257477,-0.019697748124599457,-9.810254096984863,0.008496522903442383,-0.20881380140781403,0.43244174122810364,-0.001297009875997901,-0.012537140399217606,1.6131967306137085,0.06518325954675674,-0.05409453436732292,0.11126931756734848,0.03343433514237404,-0.06346679478883743,0.06050235033035278,0.0,0.07173485308885574,92,0,487.9799499511719,-0.06050235033035278,900,900,900,900,0.0,0.0,0.0,1.5707963267948966
1729765573695569729,0.00035061765811406076,0.00040122587233781815,0.0004235559608787298,-0.15628236532211304,0.04494570940732956,-9.823423385620117,0.008496522903442383,-0.20881380140781403,0.43244174122810364,-0.0013027163222432137,-0.01252555288374424,1.6132020950317383,0.06544507294893265,-0.054456356912851334,0.1115279421210289,0.033347342163324356,-0.06359632313251495,0.06034909561276436,0.0,0.07180903851985931,92,0,487.97967529296875,-0.06034909561276436,900,900,900,900,0.0,0.0,0.0,1.5707963267948966
1729765573703603673,0.001682198024354875,0.0004012256395071745,-0.0022396082058548927,-0.13712875545024872,0.03417179360985756,-9.804269790649414,0.008496522903442383,-0.20881380140781403,0.43244174122810364,-0.0012847203761339188,-0.01252464484423399,1.613186001777649,0.06570658087730408,-0.054827068001031876,0.11179342865943909,0.03312939405441284,-0.06371069699525833,0.06020314618945122,0.0,0.07180953770875931,92,0,487.97943115234375,-0.06020314618945122,900,900,900,900,0.0,0.0,0.0,1.5707963267948966
1729765573711642172,0.000350617163348943,0.0009338578674942255,-0.0003753946512006223,-0.1179751306772232,-0.020894845947623253,-9.791099548339844,0.008496522903442383,-0.20881380140781403,0.43244174122810364,-0.0012807724997401237,-0.01251839380711317,1.613186001777649,0.06596887856721878,-0.055205028504133224,0.11206691712141037,0.033265065401792526,-0.06358601152896881,0.06026413291692734,0.0,0.07176172733306885,92,0,487.9791564941406,-0.06026413291692734,900,900,900,900,0.0,0.0,0.0,1.5707963267948966
1729765573721110508,-0.0004459572082851082,-0.00041033863089978695,0.0009578376775607467,-0.10962515324354172,0.0030349986627697945,-9.781484603881836,0.008496522903442383,-0.20881380140781403,0.43244174122810364,-0.0012864406453445554,-0.01251960638910532,1.61318838596344,0.06601254642009735,-0.05473591387271881,0.1116420328617096,0.03328455612063408,-0.0631515309214592,0.05987224355340004,0.0,0.07138612121343613,92,0,487.9795837402344,-0.05987224355340004,900,900,900,900,0.0,0.0,0.0,1.5707963267948966
1729765573731876974,0.0006193080917000771,-0.002274551894515753,0.001224155188538134,-0.15272079408168793,0.0054292017593979836,-9.768319129943848,0.008496522903442383,-0.20881380140781403,0.43244174122810364,-0.0012838690308853984,-0.01255127415060997,1.6132034063339233,0.0660628229379654,-0.05429164320230484,0.11124148219823837,0.03318767994642258,-0.06274879723787308,0.05986347422003746,0.0,0.07098474353551865,92,0,487.97998046875,-0.05986347422003746,900,900,900,900,0.0,0.0,0.0,1.5707963267948966
1729765573737393135,-0.0001796384749468416,-0.0022745528258383274,0.00015888753114268184,-0.146735280752182,-0.007738909684121609,-9.78747272491455,0.008496522903442383,-0.20881380140781403,0.43244174122810364,-0.0012833268847316504,-0.012566457502543926,1.6132051944732666,0.0661192312836647,-0.053873080760240555,0.11086638271808624,0.03321600705385208,-0.06253767758607864,0.05979429557919502,0.0,0.07081146538257599,92,0,487.9803466796875,-0.05979429557919502,900,900,900,900,0.0,0.0,0.0,1.5707963267948966
1729765573743804383,-0.0012449052883312106,0.0017201905138790607,-0.000640059937722981,-0.14553818106651306,0.03775092586874962,-9.798246383666992,0.008496522903442383,-0.20881380140781403,0.43244174122810364,-0.0012938540894538164,-0.01257236022502184,1.6132004261016846,0.06618117541074753,-0.05348007008433342,0.11051474511623383,0.03292785957455635,-0.06236404925584793,0.05958469212055206,0.0,0.07052318006753922,92,0,487.980712890625,-0.05958469212055206,900,900,900,900,0.0,0.0,0.0,1.5707963267948966
1729765573748431291,-0.0007122731767594814,0.0011875589843839407,0.002023102482780814,-0.1383555829524994,-0.010133109986782074,-9.78866958618164,0.008496522903442383,-0.20881380140781403,0.43244174122810364,-0.0012992550618946552,-0.012570814229547977,1.6132115125656128,0.066248320043087,-0.053111180663108826,0.11018570512533188,0.032971419394016266,-0.062041040509939194,0.05944795906543732,0.0,0.07025813311338425,92,0,487.98101806640625,-0.05944795906543732,900,900,900,900,0.0,0.0,0.0,1.5707963267948966
1729765573759680155,-0.0007122706156224012,0.0003886076156049967,0.0017567845061421394,-0.09286573529243469,-0.007738908752799034,-9.83176326751709,0.008496522903442383,-0.20881380140781403,0.43244174122810364,-0.0012973608681932092,-0.012578862719237804,1.6132354736328125,0.06632238626480103,-0.05276469886302948,0.10987143963575363,0.03308020904660225,-0.06150739639997482,0.05903319641947746,0.0,0.06983881443738937,92,0,487.9813537597656,-0.05903319641947746,900,900,900,900,0.0,0.0,0.0,1.5707963267948966
1729765573767737752,-0.0007122727110981941,0.0003886094782501459,-0.0009063755278475583,-0.1359613686800003,-0.0065418086014688015,-9.820989608764648,0.008496522903442383,-0.20881380140781403,0.43244174122810364,-0.0013025614898651838,-0.012593371793627739,1.613230586051941,0.06640308350324631,-0.05243910476565361,0.10957644879817963,0.033160500228405,-0.061148084700107574,0.05860505625605583,0.0,0.06956081092357635,92,0,487.98162841796875,-0.05860505625605583,900,900,900,900,0.0,0.0,0.0,1.5707963267948966
1729765573775063883,8.667592192068696e-05,0.0003886094782501459,0.0009578376775607467,-0.10004834085702896,-0.04006063565611839,-9.82458209991455,0.008496522903442383,-0.20881380140781403,0.43244174122810364,-0.0012994022108614445,-0.012597243301570415,1.6132383346557617,0.06649089604616165,-0.052134495228528976,0.10930068045854568,0.03344743326306343,-0.0606478676199913,0.058244142681360245,0.0,0.06925961375236511,92,0,487.9819030761719,-0.058244142681360245,900,900,900,900,0.0,0.0,0.0,1.5707963267948966
1729765573783536638,-0.0009785870788618922,-0.0009429720230400562,-0.0011726915836334229,-0.13476425409317017,0.012611805461347103,-9.818596839904785,0.008496522903442383,-0.20881380140781403,0.43244174122810364,-0.001304644625633955,-0.012616070918738842,1.613236427307129,0.06658568978309631,-0.05184967815876007,0.10904352366924286,0.03344620764255524,-0.06030843406915665,0.05788378044962883,0.0,0.0689619854092598,92,0,487.982177734375,-0.05788378044962883,900,900,900,900,0.0,0.0,0.0,1.5707963267948966
1729765573791365116,0.0030161538161337376,0.0001222928985953331,-0.0017053205519914627,-0.12638455629348755,0.018597312271595,-9.810215950012207,0.005599205382168293,-0.2165202647447586,0.42957791686058044,-0.0012884881580248475,-0.01262961607426405,1.6132270097732544,0.06668516993522644,-0.05158522352576256,0.10880464315414429,0.033303625881671906,-0.059999335557222366,0.057578183710575104,0.0,0.06862252950668335,92,0,487.982421875,-0.057578183710575104,900,900,900,900,0.0,0.0,0.0,1.5707963267948966
1729765573800876661,0.0043477327562868595,0.00038860784843564034,-0.001705325092189014,-0.13715848326683044,0.012611805461347103,-9.795851707458496,0.005599205382168293,-0.2165202647447586,0.42957791686058044,-0.0012488027568906546,-0.01263680774718523,1.6132100820541382,0.06678957492113113,-0.05134052783250809,0.10858432203531265,0.03331036865711212,-0.0597383975982666,0.05741334706544876,0.0,0.06839778274297714,92,0,487.9826354980469,-0.05741334706544876,900,900,900,900,0.0,0.0,0.0,1.5707963267948966
1729765573809475727,-0.002576487371698022,0.0006549251265823841,0.0014904665295034647,-0.11800485849380493,-0.007738908752799034,-9.816203117370605,0.011591801419854164,-0.22166337072849274,0.4280432462692261,-0.0012505503837019205,-0.01266325730830431,1.6132235527038574,0.066898874938488,-0.051116324961185455,0.10838252305984497,0.03331681340932846,-0.059686481952667236,0.057200413197278976,0.0,0.06835559010505676,92,0,487.98284912109375,-0.057200413197278976,900,900,900,900,0.0,0.0,0.0,1.5707963267948966
1729765573818215694,-0.0031091172713786364,0.00012229313142597675,0.0017567856702953577,-0.1251874715089798,-0.010133110918104649,-9.806626319885254,0.011591801419854164,-0.22166337072849274,0.4280432462692261,-0.0012618725886568427,-0.012668667361140251,1.6132315397262573,0.06701381504535675,-0.05091152340173721,0.10818678885698318,0.033419471234083176,-0.05934629216790199,0.05693785473704338,0.0,0.06810905039310455,92,0,487.9830322265625,-0.05693785473704338,900,900,900,900,0.0,0.0,0.0,1.5707963267948966
1729765573822932869,-0.0023101684637367725,-0.00014402344822883606,0.001224153209477663,-0.14434108138084412,-0.00295050535351038,-9.78747272491455,0.011591801419854164,-0.22166337072849274,0.4280432462692261,-0.0012771791080012918,-0.012680982239544392,1.6132497787475586,0.06713446974754333,-0.05072552710771561,0.10800870507955551,0.03350518271327019,-0.05921842157840729,0.056818295270204544,0.0,0.06803983449935913,92,0,487.98321533203125,-0.056818295270204544,900,900,900,900,0.0,0.0,0.0,1.5707963267948966
1729765573831295861,0.00035299151204526424,-0.002807182725518942,0.0009578429162502289,-0.16110049188137054,-0.007738909684121609,-9.798246383666992,0.011591801419854164,-0.22166337072849274,0.4280432462692261,-0.0012829162878915668,-0.012708661146461964,1.6132594347000122,0.06726022064685822,-0.05055881664156914,0.10784896463155746,0.03354405611753464,-0.05917268991470337,0.05676659941673279,0.0,0.06801919639110565,92,0,487.9833679199219,-0.05676659941673279,900,900,900,900,0.0,0.0,0.0,1.5707963267948966
1729765573838972886,0.0027498374693095684,0.00012229382991790771,-0.000373741437215358,-0.16828307509422302,-0.007738909218460321,-9.807823181152344,0.011591801419854164,-0.22166337072849274,0.4280432462692261,-0.0012610009871423244,-0.012723997235298157,1.613262414932251,0.06739199161529541,-0.05041171610355377,0.10770566016435623,0.03375954180955887,-0.05920970439910889,0.05645710602402687,0.0,0.0681578740477562,92,0,487.9835205078125,-0.05645710602402687,900,900,900,900,0.0,0.0,0.0,1.5707963267948966
1729765573846546933,-0.00044595668441616,0.0001222928985953331,-0.00010742986341938376,-0.16588887572288513,0.009020502679049969,-9.798246383666992,0.011591801419854164,-0.22166337072849274,0.4280432462692261,-0.0012530621606856585,-0.012735506519675255,1.6132655143737793,0.06752878427505493,-0.050284165889024734,0.10757887363433838,0.033721838146448135,-0.05926336348056793,0.056373823434114456,0.0,0.06818583607673645,92,0,487.983642578125,-0.056373823434114456,900,900,900,900,0.0,0.0,0.0,1.5707963267948966
1729765573855159439,0.0003529922105371952,-0.0004103388637304306,-0.0006400574347935617,-0.16708597540855408,0.009020502679049969,-9.837750434875488,0.011591801419854164,-0.22166337072849274,0.4280432462692261,-0.001261073281057179,-0.012738188728690147,1.6132665872573853,0.06767040491104126,-0.05017530173063278,0.10746778547763824,0.03384922444820404,-0.059195443987846375,0.05603020638227463,0.0,0.06818995624780655,92,0,487.9837341308594,-0.05603020638227463,900,900,900,900,0.0,0.0,0.0,1.5707963267948966
1729765573862336046,0.0019508905243128538,0.0001222933642566204,-0.001971638295799494,-0.16110049188137054,0.016203109174966812,-9.817399978637695,0.011591801419854164,-0.22166337072849274,0.4280432462692261,-0.0012523409677669406,-0.01274172030389309,1.6132605075836182,0.06781674921512604,-0.050084587186574936,0.10737048089504242,0.033805493265390396,-0.05924772471189499,0.05567174404859543,0.0,0.06821366399526596,92,0,487.9838562011719,-0.05567174404859543,900,900,900,900,0.0,0.0,0.0,1.5707963267948966
1729765573870885487,0.0006193051813170314,-0.0012092874385416508,-0.0017053261399269104,-0.14194688200950623,0.0018378971144557,-9.805428504943848,0.011591801419854164,-0.22166337072849274,0.4280432462692261,-0.001240274985320866,-0.012753474526107311,1.6132440567016602,0.06796672195196152,-0.05001114681363106,0.10728776454925537,0.03375785052776337,-0.05909431725740433,0.055508483201265335,0.0,0.06805682182312012,92,0,487.9839172363281,-0.055508483201265335,900,900,900,900,0.0,0.0,0.0,1.5707963267948966
1729765573880784352,-0.0036417513620108366,0.00012229313142597675,0.0006915185367688537,-0.14793238043785095,-0.030483830720186234,-9.822186470031738,0.011591801419854164,-0.22166337072849274,0.4280432462692261,-0.0012627344112843275,-0.012763496488332748,1.61325204372406,0.06812223047018051,-0.04995432123541832,0.1072268933057785,0.034100279211997986,-0.05903499573469162,0.055217813700437546,0.0,0.06817594170570374,92,0,487.9839782714844,-0.055217813700437546,900,900,900,900,0.0,0.0,0.0,1.5707963267948966
1729765573890335072,-0.0015112195396795869,-0.00014402298256754875,-0.0019716403912752867,-0.14434108138084412,0.004232100211083889,-9.793456077575684,0.011591801419854164,-0.22166337072849274,0.4280432462692261,-0.0012723472900688648,-0.012770767323672771,1.6132451295852661,0.06828286498785019,-0.04991401731967926,0.10717972368001938,0.034085702151060104,-0.0589810311794281,0.05509990081191063,0.0,0.06812192499637604,92,0,487.9840393066406,-0.05509990081191063,900,900,900,900,0.0,0.0,0.0,1.5707963267948966
1729765573896001076,0.002217202913016081,0.0006549251265823841,-0.00010742450831457973,-0.15032656490802765,-0.016118615865707397,-9.785076141357422,0.011591801419854164,-0.22166337072849274,0.4280432462692261,-0.0012715158518403769,-0.01277934294193983,1.6132259368896484,0.06844832748174667,-0.04988938570022583,0.10714732110500336,0.03433777764439583,-0.05883815139532089,0.055127453058958054,0.0,0.06812497228384018,92,0,487.98406982421875,-0.055127453058958054,900,900,900,900,0.0,0.0,0.0,1.5707963267948966
1729765573903124134,0.0038151012267917395,0.0019865066278725863,0.0004252074286341667,-0.17785990238189697,0.044933538883924484,-9.799443244934082,0.011591801419854164,-0.22166337072849274,0.4280432462692261,-0.0012557635782286525,-0.012773821130394936,1.61322820186615,0.068619005382061,-0.04988045245409012,0.10712971538305283,0.034288275986909866,-0.0589301660656929,0.05508028715848923,0.0,0.06817954778671265,92,0,487.9841003417969,-0.05508028715848923,900,900,900,900,0.0,0.0,0.0,1.5707963267948966
1729765573910405915,8.6675223428756e-05,-0.00014402461238205433,0.0012241493677720428,-0.1622975766658783,0.006626301445066929,-9.768319129943848,0.011591801419854164,-0.22166337072849274,0.4280432462692261,-0.0012392982607707381,-0.012772852554917336,1.6132333278656006,0.06879197061061859,-0.049888867884874344,0.10712625831365585,0.034165702760219574,-0.0591253861784935,0.055151648819446564,0.0,0.0682869404554367,92,0,487.9841003417969,-0.055151648819446564,900,900,900,900,0.0,0.0,0.0,1.5707963267948966
1729765573918749671,-0.0020438532810658216,0.000654926523566246,0.00308836717158556,-0.13715848326683044,0.02338571473956108,-9.7778959274292,0.011591801419854164,-0.22166337072849274,0.4280432462692261,-0.0012572759296745062,-0.012771311216056347,1.6132575273513794,0.06896834075450897,-0.049912817776203156,0.10713756084442139,0.03412402421236038,-0.059027090668678284,0.05523645132780075,0.0,0.06818098574876785,92,0,487.98406982421875,-0.05523645132780075,900,900,900,900,0.0,0.0,0.0,1.5707963267948966
1729765573926816782,-0.0017775349551811814,-0.0012092893011868,0.0017567849718034267,-0.1275816559791565,0.052116140723228455,-9.8150053024292,0.007657380308955908,-0.21589048206806183,0.4291306436061859,-0.0012699879007413983,-0.012785233557224274,1.6132783889770508,0.06914633512496948,-0.04995068535208702,0.10716276615858078,0.03374161943793297,-0.05886087566614151,0.055158961564302444,0.0,0.0678461492061615,92,0,487.9840393066406,-0.055158961564302444,900,900,900,900,0.0,0.0,0.0,1.5707963267948966
1729765573934213862,-0.002576483180746436,-0.0001440257765352726,-0.0022379541769623756,-0.1515236794948578,-0.023301221430301666,-9.8150053024292,0.007657380308955908,-0.21589048206806183,0.4291306436061859,-0.00130740599706769,-0.012785508297383785,1.613271951675415,0.06932622194290161,-0.050002630800008774,0.10718280076980591,0.03379300236701965,-0.0588991679251194,0.05476817116141319,0.0,0.06790492683649063,92,0,487.9840393066406,-0.05476817116141319,900,900,900,900,0.0,0.0,0.0,1.5707963267948966
1729765573942845625,-0.0004459563351701945,-0.0009429734200239182,-0.0027705852407962084,-0.17426861822605133,-0.0005563031882047653,-9.797049522399902,0.013991067185997963,-0.22147563099861145,0.4309033751487732,-0.0013087865663692355,-0.012790432199835777,1.6132608652114868,0.069510817527771,-0.05006922781467438,0.10721395909786224,0.033964525908231735,-0.05900399386882782,0.05463004857301712,0.0,0.06808127462863922,92,0,487.9840087890625,-0.05463004857301712,900,900,900,900,0.0,0.0,0.0,1.5707963267948966
1729765573950378481,0.0022172045428305864,0.0006549253594130278,-0.0009063723846338689,-0.1359613835811615,-0.019709918648004532,-9.82936954498291,0.013991067185997963,-0.22147563099861145,0.4309033751487732,-0.0012979301391169429,-0.012796648778021336,1.6132500171661377,0.06969977170228958,-0.05015065148472786,0.10725679993629456,0.034132979810237885,-0.05901700630784035,0.05436820164322853,0.0,0.06817673146724701,92,0,487.98394775390625,-0.05436820164322853,900,900,900,900,0.0,0.0,0.0,1.5707963267948966
1729765573960344147,0.0011519400868564844,0.001453873934224248,-0.00037374431849457324,-0.13117295503616333,-0.025695422664284706,-9.793456077575684,0.013991067185997963,-0.22147563099861145,0.4309033751487732,-0.0012829550541937351,-0.012782229110598564,1.6132444143295288,0.06989406049251556,-0.05024489760398865,0.10731074213981628,0.03444790840148926,-0.058879781514406204,0.05428509786725044,0.0,0.068216472864151,92,0,487.9839172363281,-0.05428509786725044,900,900,900,900,0.0,0.0,0.0,1.5707963267948966
1729765573968135941,0.0011519413674250245,-0.00014402298256754875,0.003088365774601698,-0.15391789376735687,0.007823404856026173,-9.794652938842773,0.013991067185997963,-0.22147563099861145,0.4309033751487732,-0.0012716258643195033,-0.012781264260411263,1.6132690906524658,0.07009261846542358,-0.05035155266523361,0.10737636685371399,0.034446582198143005,-0.058853212743997574,0.05419493466615677,0.0,0.06819286942481995,92,0,487.98382568359375,-0.05419493466615677,900,900,900,900,0.0,0.0,0.0,1.5707963267948966
1729765573976470154,-0.000712271430529654,-0.00014402251690626144,-0.0009063765173777938,-0.146735280752182,-0.023301221430301666,-9.7778959274292,0.013991067185997963,-0.22147563099861145,0.4309033751487732,-0.0012749192537739873,-0.012786399573087692,1.6132662296295166,0.07029473781585693,-0.050471559166908264,0.10745467245578766,0.03461737185716629,-0.0589144304394722,0.05437595397233963,0.0,0.06833207607269287,92,0,487.9837646484375,-0.05437595397233963,900,900,900,900,0.0,0.0,0.0,1.5707963267948966
1729765573982810868,-0.002842802321538329,0.000654926523566246,-0.0009063760517165065,-0.14793238043785095,0.024582821875810623,-9.83176326751709,0.013991067185997963,-0.22147563099861145,0.4309033751487732,-0.0012962991604581475,-0.012782730162143707,1.6132569313049316,0.07050134986639023,-0.050604142248630524,0.1075444296002388,0.03469192981719971,-0.058898501098155975,0.05412605404853821,0.0,0.06835615634918213,92,0,487.9836730957031,-0.05412605404853821,900,900,900,900,0.0,0.0,0.0,1.5707963267948966
1729765573991139064,0.0006193086737766862,0.0011875573545694351,-0.001439006649889052,-0.1622975766658783,0.0030349986627697945,-9.810215950012207,0.013991067185997963,-0.22147563099861145,0.4309033751487732,-0.0012985944049432874,-0.012769206427037716,1.6132506132125854,0.07071039825677872,-0.05074957385659218,0.10764326900243759,0.03465016931295395,-0.0590377002954483,0.053873103111982346,0.0,0.06845498085021973,92,0,487.98358154296875,-0.053873103111982346,900,900,900,900,0.0,0.0,0.0,1.5707963267948966
1729765574000176123,0.0008856223430484533,-0.001209287904202938,-0.0009063786128535867,-0.12997585535049438,-0.0268925242125988,-9.809020042419434,0.013991067185997963,-0.22147563099861145,0.4309033751487732,-0.0012827434111386538,-0.012782088480889797,1.613237977027893,0.07092291116714478,-0.05090757831931114,0.10774991661310196,0.03484967350959778,-0.05900067836046219,0.053769372403621674,0.0,0.0685243010520935,92,0,487.98345947265625,-0.053769372403621674,900,900,900,900,0.0,0.0,0.0,1.5707963267948966
1729765574011683516,-0.0015112209366634488,0.002252822043374181,-0.0009063757606782019,-0.12039907276630402,0.013808908872306347,-9.792258262634277,0.013991067185997963,-0.22147563099861145,0.4309033751487732,-0.0013000508770346642,-0.012768124230206013,1.613232970237732,0.07113998383283615,-0.051076073199510574,0.1078670397400856,0.03497672826051712,-0.058796532452106476,0.05377667769789696,0.0,0.06841347366571426,92,0,487.98333740234375,-0.05377667769789696,900,900,900,900,0.0,0.0,0.0,1.5707963267948966
1729765574014188834,0.0008856242056936026,0.0033180871978402138,-0.0006400595302693546,-0.12877875566482544,0.017400208860635757,-9.803032875061035,0.013991067185997963,-0.22147563099861145,0.4309033751487732,-0.0012960584135726094,-0.01273693609982729,1.6132253408432007,0.0713595449924469,-0.05125485360622406,0.10799434781074524,0.03489388898015022,-0.058703016489744186,0.05367099866271019,0.0,0.06829075515270233,92,0,487.98321533203125,-0.05367099866271019,900,900,900,900,0.0,0.0,0.0,1.5707963267948966
1729765574018855767,0.00141825620085001,-0.0012092888355255127,0.0012241520453244448,-0.13237005472183228,0.010217606090009212,-9.804229736328125,0.013991067185997963,-0.22147563099861145,0.4309033751487732,-0.0012816325761377811,-0.01274285838007927,1.613232970237732,0.07158121466636658,-0.05144387483596802,0.10813162475824356,0.034872379153966904,-0.05859379470348358,0.05363602563738823,0.0,0.06818589568138123,92,0,487.98309326171875,-0.05363602563738823,900,900,900,900,0.0,0.0,0.0,1.5707963267948966
1729765574030531551,8.667760994285345e-05,-0.0017419187352061272,-0.0011726918164640665,-0.14194688200950623,0.012611805461347103,-9.785076141357422,0.013991067185997963,-0.22147563099861145,0.4309033751487732,-0.001280929078347981,-0.012757185846567154,1.6132234334945679,0.07180491089820862,-0.051643360406160355,0.108278788626194,0.03478905186057091,-0.05859716609120369,0.05366510525345802,0.0,0.06814620643854141,92,0,487.9829406738281,-0.05366510525345802,900,900,900,900,0.0,0.0,0.0,1.5707963267948966
1729765574039343726,0.0019508885452523828,-0.0017419192008674145,-0.001705323113128543,-0.1227932721376419,-0.04724324122071266,-9.785077095031738,0.013991067185997963,-0.22147563099861145,0.4309033751487732,-0.0012627376709133387,-0.012773683294653893,1.6131986379623413,0.07203204929828644,-0.05185332149267197,0.10843618214130402,0.035133931785821915,-0.058524150401353836,0.05372261255979538,0.0,0.0682603046298027,92,0,487.9827880859375,-0.05372261255979538,900,900,900,900,0.0,0.0,0.0,1.5707963267948966
1729765574048842143,0.0008856253698468208,-0.0017419182695448399,-0.0019716410897672176,-0.14074978232383728,0.022188615053892136,-9.78747272491455,0.013991067185997963,-0.22147563099861145,0.4309033751487732,-0.0012591418344527483,-0.012780217453837395,1.6131885051727295,0.07226400822401047,-0.05207258462905884,0.10860379785299301,0.03523842617869377,-0.058436401188373566,0.05380239337682724,0.0,0.0682389885187149,92,0,487.98260498046875,-0.05380239337682724,900,900,900,900,0.0,0.0,0.0,1.5707963267948966
1729765574055856597,8.66719929035753e-05,-0.001209287904202938,0.001224152627401054,-0.12039907276630402,0.03775092586874962,-9.78986644744873,0.013991067185997963,-0.22147563099861145,0.4309033751487732,-0.0012564444914460182,-0.012792126275599003,1.6131856441497803,0.07249756157398224,-0.052301619201898575,0.10878485441207886,0.03503278270363808,-0.05836886912584305,0.05379954352974892,0.0,0.06807511299848557,92,0,487.982421875,-0.05379954352974892,900,900,900,900,0.0,0.0,0.0,1.5707963267948966
1729765574059192964,-0.0012449040077626705,-0.0001440227497369051,-0.00010742736048996449,-0.1227932721376419,-0.016118615865707397,-9.785076141357422,0.013991067185997963,-0.22147563099861145,0.4309033751487732,-0.0012654879828915,-0.012792256660759449,1.6131837368011475,0.07273264229297638,-0.0525394044816494,0.10897573083639145,0.03512180224061012,-0.05821820721030235,0.05395415797829628,0.0,0.06799191981554031,92,0,487.98223876953125,-0.05395415797829628,900,900,900,900,0.0,0.0,0.0,1.5707963267948966
1729765574070776774,0.0019508895929902792,0.0017201905138790607,-0.0017053232295438647,-0.14434108138084412,-0.005344707518815994,-9.818596839904785,0.013991067185997963,-0.22147563099861145,0.4309033751487732,-0.001253085327334702,-0.012780637480318546,1.6131700277328491,0.07297102361917496,-0.05278598517179489,0.10917537659406662,0.03524108976125717,-0.05820140615105629,0.05381299927830696,0.0,0.06803923845291138,92,0,487.9820556640625,-0.05381299927830696,900,900,900,900,0.0,0.0,0.0,1.5707963267948966
1729765574079903436,-0.0004459590127225965,-0.0004103383980691433,0.00015888817142695189,-0.15631209313869476,-0.013724415563046932,-9.806626319885254,0.01061258465051651,-0.21719063818454742,0.42781826853752136,-0.0012534979032352567,-0.012779640033841133,1.6131585836410522,0.0732126533985138,-0.05304232984781265,0.10938220471143723,0.03540467843413353,-0.05831649899482727,0.05366814509034157,0.0,0.06822247058153152,92,0,487.9818420410156,-0.05366814509034157,900,900,900,900,0.0,0.0,0.0,1.5707963267948966
1729765574087597080,-0.0009785862639546394,-0.0004103397950530052,-0.0006400588899850845,-0.17426861822605133,0.019794411957263947,-9.751559257507324,0.014765415340662003,-0.2113593965768814,0.43246912956237793,-0.0012636386090889573,-0.01278286799788475,1.6131577491760254,0.07345764338970184,-0.053309403359889984,0.1095980554819107,0.0354711189866066,-0.058608170598745346,0.05398334190249443,0.0,0.06850633770227432,92,0,487.98162841796875,-0.05398334190249443,900,900,900,900,0.0,0.0,0.0,1.5707963267948966
1729765574094379307,0.0008856224594637752,0.0011875575874000788,0.0009578377939760685,-0.12638455629348755,-0.018512818962335587,-9.813806533813477,0.014765415340662003,-0.2113593965768814,0.43246912956237793,-0.001257746946066618,-0.012773311696946621,1.6131527423858643,0.07370488345623016,-0.0535866916179657,0.10982328653335571,0.035583529621362686,-0.058605071157217026,0.05393142253160477,0.0,0.06856195628643036,92,0,487.98138427734375,-0.05393142253160477,900,900,900,900,0.0,0.0,0.0,1.5707963267948966
1729765574102152804,0.0024835222866386175,0.0019865077920258045,-0.0009063744219020009,-0.12997585535049438,-0.01970992051064968,-9.805428504943848,0.014765415340662003,-0.2113593965768814,0.43246912956237793,-0.0012412200449034572,-0.012760560028254986,1.6131469011306763,0.0739561915397644,-0.05387205630540848,0.11005581170320511,0.03589364141225815,-0.05852614715695381,0.05387355387210846,0.0,0.06865612417459488,92,0,487.9811706542969,-0.05387355387210846,900,900,900,900,0.0,0.0,0.0,1.5707963267948966
1729765574113022051,0.0016845721984282136,0.0014538742834702134,-0.0017053248593583703,-0.146735280752182,0.004232099279761314,-9.78866958618164,0.014765415340662003,-0.2113593965768814,0.43246912956237793,-0.0012266451958566904,-0.012742504477500916,1.6131272315979004,0.07421059161424637,-0.05416557565331459,0.11029568314552307,0.035915497690439224,-0.058561213314533234,0.05388351529836655,0.0,0.06869743764400482,92,0,487.9809265136719,-0.05388351529836655,900,900,900,900,0.0,0.0,0.0,1.5707963267948966
1729765574118499049,-0.00043810877832584083,0.0006447660271078348,-0.0003762729756999761,-0.13838259875774384,-0.0005711764097213745,-9.790915489196777,0.014765415340662003,-0.2113593965768814,0.43246912956237793,-0.0012238817289471626,-0.012738300487399101,1.6131154298782349,0.07393431663513184,-0.05376622825860977,0.1098608747124672,0.035737235099077225,-0.05832695588469505,0.053707804530858994,0.0,0.06840456277132034,92,0,487.9813537597656,-0.053707804530858994,900,900,900,900,0.0,0.0,0.0,1.5707963267948966
1729765574127644993,0.0011597891571000218,0.0025089788250625134,-0.000908902904484421,-0.1347912698984146,0.0006259242072701454,-9.817252159118652,0.014765415340662003,-0.2113593965768814,0.43246912956237793,-0.0012129514943808317,-0.01273195631802082,1.6131058931350708,0.07367211580276489,-0.05339054763317108,0.10944961756467819,0.03560211509466171,-0.05804457888007164,0.05343277007341385,0.0,0.0680931955575943,92,0,487.9817810058594,-0.05343277007341385,900,900,900,900,0.0,0.0,0.0,1.5707963267948966
1729765574135240392,0.0032903177198022604,0.0022426617797464132,-0.0017078528180718422,-0.09768115729093552,0.013794035650789738,-9.765774726867676,0.014765415340662003,-0.2113593965768814,0.43246912956237793,-0.0011805604444816709,-0.012720329686999321,1.6130850315093994,0.07342327386140823,-0.05303667485713959,0.10906102508306503,0.03536936268210411,-0.05750351771712303,0.05337067320942879,0.0,0.06751034408807755,92,0,487.9821472167969,-0.05337067320942879,900,900,900,900,0.0,0.0,0.0,1.5707963267948966
1729765574143550526,0.004089266527444124,0.0011773982550948858,-0.0003762714914046228,-0.14436809718608856,-0.005359580274671316,-9.784928321838379,0.014765415340662003,-0.2113593965768814,0.43246912956237793,-0.0011408778373152018,-0.012719368562102318,1.6130781173706055,0.07318700104951859,-0.05270358920097351,0.1086958721280098,0.03519870340824127,-0.057210665196180344,0.05328979715704918,0.0,0.06717149168252945,92,0,487.9825134277344,-0.05328979715704918,900,900,900,900,0.0,0.0,0.0,1.5707963267948966
1729765574150040433,0.0014261050382629037,0.002242662478238344,-0.0009089037775993347,-0.1503535807132721,0.00661142822355032,-9.789717674255371,0.014765415340662003,-0.2113593965768814,0.43246912956237793,-0.0011170695070177317,-0.012714186683297157,1.6130640506744385,0.07296337187290192,-0.05239269882440567,0.1083531379699707,0.03500546142458916,-0.057078272104263306,0.05319578945636749,0.0,0.06695753335952759,92,0,487.98284912109375,-0.05319578945636749,900,900,900,900,0.0,0.0,0.0,1.5707963267948966
1729765574159141030,-0.0001717917330097407,0.00037844921462237835,0.0006889928481541574,-0.161127507686615,-0.017330588772892952,-9.814855575561523,0.014765415340662003,-0.2113593965768814,0.43246912956237793,-0.001107247662730515,-0.012712230905890465,1.613061785697937,0.07275254279375076,-0.05210387334227562,0.10803115367889404,0.035006437450647354,-0.05698895454406738,0.05287931114435196,0.0,0.06688192486763,92,0,487.9831848144531,-0.05287931114435196,900,900,900,900,0.0,0.0,0.0,1.5707963267948966
1729765574166446435,-0.00017178858979605138,-0.002817344618961215,-0.0003762714914046228,-0.16831009089946747,-0.028104498982429504,-9.79211139678955,0.014765415340662003,-0.2113593965768814,0.43246912956237793,-0.0011006268905475736,-0.012745463289320469,1.6130609512329102,0.07255523651838303,-0.05183732509613037,0.10772905498743057,0.03510874882340431,-0.057015854865312576,0.05272701010107994,0.0,0.06695843487977982,92,0,487.9834899902344,-0.05272701010107994,900,900,900,900,0.0,0.0,0.0,1.5707963267948966
1729765574175782608,-0.0039002210833132267,0.0019763505551964045,0.002020572079345584,-0.13838259875774384,0.020976640284061432,-9.816054344177246,0.014765415340662003,-0.2113593965768814,0.43246912956237793,-0.0011151364305987954,-0.0127553166821599,1.6130414009094238,0.07237041741609573,-0.051592230796813965,0.10743378847837448,0.03489569574594498,-0.05690927058458328,0.052407942712306976,0.0,0.06675608456134796,92,0,487.9837951660156,-0.052407942712306976,900,900,900,900,0.0,0.0,0.0,1.5707963267948966
1729765574184738153,-0.0004381069738883525,0.0014437157660722733,0.0009553117561154068,-0.12760867178440094,0.0018230248242616653,-9.802885055541992,0.014765415340662003,-0.2113593965768814,0.43246912956237793,-0.0011245945934206247,-0.012751339934766293,1.6130443811416626,0.07219608128070831,-0.05136696249246597,0.10715692490339279,0.034684017300605774,-0.05666934326291084,0.05214564502239227,0.0,0.06644091755151749,92,0,487.98406982421875,-0.05214564502239227,900,900,900,900,0.0,0.0,0.0,1.5707963267948966
1729765574191740909,-0.0007044238736853004,0.0006447664927691221,-0.0017078535165637732,-0.15155068039894104,0.00900562945753336,-9.787323951721191,0.014765415340662003,-0.2113593965768814,0.43246912956237793,-0.001115616993047297,-0.012757018208503723,1.6130229234695435,0.07203295081853867,-0.05116043984889984,0.10689914226531982,0.0345907136797905,-0.056512411683797836,0.05206179618835449,0.0,0.06625836342573166,92,0,487.98431396484375,-0.05206179618835449,900,900,900,900,0.0,0.0,0.0,1.5707963267948966
1729765574201696071,9.452382801100612e-05,0.0006447655614465475,-0.0017078511882573366,-0.15155068039894104,0.018582437187433243,-9.787323951721191,0.014765415340662003,-0.2113593965768814,0.43246912956237793,-0.0011118868133053184,-0.012767001986503601,1.6129966974258423,0.07188002020120621,-0.05097344145178795,0.10666029155254364,0.03434061259031296,-0.05648987367749214,0.051949452608823776,0.0,0.06610887497663498,92,0,487.98455810546875,-0.051949452608823776,900,900,900,900,0.0,0.0,0.0,1.5707963267948966
1729765574208560441,9.4525923486799e-05,-0.0006868152413517237,-0.0003762722772080451,-0.12282028794288635,-0.016133489087224007,-9.81485652923584,0.014765415340662003,-0.2113593965768814,0.43246912956237793,-0.0010998699581250548,-0.012773809023201466,1.6129897832870483,0.07173702120780945,-0.05080487206578255,0.10643980652093887,0.03425775468349457,-0.05623779818415642,0.051765646785497665,0.0,0.06585046648979187,92,0,487.9847717285156,-0.051765646785497665,900,900,900,900,0.0,0.0,0.0,1.5707963267948966
1729765574217739434,-0.00017179318820126355,0.0017100308323279023,0.0004226771998219192,-0.15274780988693237,-0.014936387538909912,-9.79570198059082,0.006992891430854797,-0.21494677662849426,0.43025025725364685,-0.0010956672485917807,-0.012776927091181278,1.6129801273345947,0.07160528004169464,-0.05065338686108589,0.1062360629439354,0.03429388999938965,-0.05607913061976433,0.05153476819396019,0.0,0.06573385745286942,92,0,487.9849853515625,-0.05153476819396019,900,900,900,900,0.0,0.0,0.0,1.5707963267948966
1729765574224643564,0.001159789739176631,-0.0009531306568533182,0.00441741943359375,-0.16232459247112274,-0.023316092789173126,-9.771761894226074,0.006992891430854797,-0.21494677662849426,0.43025025725364685,-0.0010826821671798825,-0.012786975130438805,1.6130026578903198,0.07148493826389313,-0.05052035301923752,0.10605033487081528,0.03438134491443634,-0.05613648146390915,0.05162372812628746,0.0,0.06582842767238617,92,0,487.98516845703125,-0.05162372812628746,900,900,900,900,0.0,0.0,0.0,1.5707963267948966
1729765574231883572,0.001159790437668562,0.0006447664927691221,-0.00010995595948770642,-0.12880577147006989,-0.0029653781093657017,-9.832812309265137,0.00836278684437275,-0.21613352000713348,0.42483314871788025,-0.001063407864421606,-0.012790163978934288,1.6130019426345825,0.07137585431337357,-0.05040494352579117,0.10588186979293823,0.03439023718237877,-0.05594592168927193,0.05133425444364548,0.0,0.06567065417766571,92,0,487.9853210449219,-0.05133425444364548,900,900,900,900,0.0,0.0,0.0,1.5707963267948966
1729765574236023149,-0.0007044242229312658,-0.002551028272137046,-0.0003762723063118756,-0.14197389781475067,0.014991133473813534,-9.816054344177246,0.00836278684437275,-0.21613352000713348,0.42483314871788025,-0.0010603886330500245,-0.012816301546990871,1.6129920482635498,0.07127632200717926,-0.050305742770433426,0.10570507496595383,0.03418977931141853,-0.05580320954322815,0.05096766725182533,0.0,0.06544417142868042,92,0,487.9855041503906,-0.05096766725182533,900,900,900,900,0.0,0.0,0.0,1.5707963267948966
1729765574247726425,0.0006271583260968328,-0.0001541823148727417,-0.001175218727439642,-0.13119997084140778,-0.001768277958035469,-9.778944969177246,0.00836278684437275,-0.21613352000713348,0.42483314871788025,-0.0010524244280532002,-0.012829156592488289,1.6129825115203857,0.07118599861860275,-0.05022270977497101,0.10554444044828415,0.03413614258170128,-0.05564121529459953,0.05095214396715164,0.0,0.06527803093194962,92,0,487.9856872558594,-0.05095214396715164,900,900,900,900,0.0,0.0,0.0,1.5707963267948966
1729765574255042201,0.004355583339929581,0.0014437122736126184,-0.002506797667592764,-0.14317099750041962,0.05329837277531624,-9.790915489196777,0.00836278684437275,-0.21613352000713348,0.42483314871788025,-0.0010179850505664945,-0.012829811312258244,1.6129541397094727,0.07110357284545898,-0.050155218690633774,0.1054009273648262,0.03366480767726898,-0.05551828071475029,0.05092272907495499,0.0,0.06492764502763748,92,0,487.9858093261719,-0.05092272907495499,900,900,900,900,0.0,0.0,0.0,1.5707963267948966
1729765574263285998,-0.00017179190763272345,0.0035742430482059717,-0.00010995502816513181,-0.12880577147006989,0.0078085316345095634,-9.802885055541992,0.00836278684437275,-0.21613352000713348,0.42483314871788025,-0.001005510799586773,-0.01280863955616951,1.6129463911056519,0.07102776318788528,-0.05010364204645157,0.10527355968952179,0.0334230475127697,-0.05543156713247299,0.05080779641866684,0.0,0.06472834199666977,92,0,487.9859313964844,-0.05080779641866684,900,900,900,900,0.0,0.0,0.0,1.5707963267948966
1729765574271141348,-0.0007044235244393349,0.0003784489817917347,-0.002240483881905675,-0.12521448731422424,0.017385333776474,-9.826828956604004,0.00836278684437275,-0.21613352000713348,0.42483314871788025,-0.001005061436444521,-0.01280294731259346,1.612931728363037,0.07096055150032043,-0.05006606876850128,0.10516081005334854,0.0333293117582798,-0.055114246904850006,0.05050518736243248,0.0,0.06440825760364532,92,0,487.9860534667969,-0.05050518736243248,900,900,900,900,0.0,0.0,0.0,1.5707963267948966
1729765574280626679,-0.0007044286467134953,-0.0006868143100291491,0.0022868900559842587,-0.17309853434562683,-0.010147983208298683,-9.825631141662598,0.00836278684437275,-0.21613352000713348,0.42483314871788025,-0.0010036436142399907,-0.012816821224987507,1.6129145622253418,0.07090115547180176,-0.05004278942942619,0.10506153106689453,0.03317422792315483,-0.055065106600522995,0.05023331567645073,0.0,0.06428604573011398,92,0,487.98614501953125,-0.05023331567645073,900,900,900,900,0.0,0.0,0.0,1.5707963267948966
1729765574289417545,0.0014261092292144895,-0.0009531301911920309,-0.00010995398042723536,-0.13239707052707672,-0.0005711764097213745,-9.813658714294434,0.00836278684437275,-0.21613352000713348,0.42483314871788025,-0.0009916892740875483,-0.01283114030957222,1.612922191619873,0.07085055857896805,-0.05003521218895912,0.1049753725528717,0.033202290534973145,-0.05517154932022095,0.04989778250455856,0.0,0.06439170986413956,92,0,487.9862365722656,-0.04989778250455856,900,900,900,900,0.0,0.0,0.0,1.5707963267948966
1729765574299296516,0.0008934726938605309,0.000378449447453022,-0.0017078525852411985,-0.1347912698984146,0.00900562945753336,-9.823235511779785,0.00836278684437275,-0.21613352000713348,0.42483314871788025,-0.0009840312413871288,-0.012836054898798466,1.6129118204116821,0.07080856710672379,-0.05004219710826874,0.10489054024219513,0.03308263048529625,-0.05500410124659538,0.04970191419124603,0.0,0.06418653577566147,92,0,487.986328125,-0.04970191419124603,900,900,900,900,0.0,0.0,0.0,1.5707963267948966
1729765574306675302,-0.0009707433637231588,-0.00015418208204209805,0.0012216235045343637,-0.14436809718608856,-0.004162479192018509,-9.829222679138184,0.00836278684437275,-0.21613352000713348,0.42483314871788025,-0.0009810207411646843,-0.012838989496231079,1.6129072904586792,0.07077421247959137,-0.05006259307265282,0.10481876134872437,0.03300826624035835,-0.054920829832553864,0.04938548430800438,0.0,0.06407685577869415,92,0,487.98638916015625,-0.04938548430800438,900,900,900,900,0.0,0.0,0.0,1.5707963267948966
1729765574311591936,-0.003367583965882659,-0.0012194502633064985,0.0020205725450068712,-0.15993040800094604,-0.02690739929676056,-9.790915489196777,0.00836278684437275,-0.21613352000713348,0.42483314871788025,-0.0010053341975435615,-0.01285741850733757,1.612929105758667,0.07074867188930511,-0.050097085535526276,0.10475965589284897,0.033160705119371414,-0.0549793615937233,0.04926860332489014,0.0,0.06420562416315079,92,0,487.9864501953125,-0.04926860332489014,900,900,900,900,0.0,0.0,0.0,1.5707963267948966
1729765574319362007,0.0006271566962823272,-0.0004204984288662672,0.0004226788296364248,-0.13119997084140778,0.010202732868492603,-9.762185096740723,0.00836278684437275,-0.21613352000713348,0.42483314871788025,-0.0010041638743132353,-0.012862646952271461,1.6129308938980103,0.07073172181844711,-0.050145458430051804,0.10471508651971817,0.03306685760617256,-0.05489930510520935,0.049431148916482925,0.0,0.0640886202454567,92,0,487.98651123046875,-0.049431148916482925,900,900,900,900,0.0,0.0,0.0,1.5707963267948966
1729765574327955659,-0.002302322071045637,0.0006447657942771912,0.0025532047729939222,-0.11563766747713089,-0.01972479373216629,-9.772956848144531,0.00836278684437275,-0.21613352000713348,0.42483314871788025,-0.0010141065577045083,-0.012859993614256382,1.6129438877105713,0.07072224467992783,-0.050206106156110764,0.10468588024377823,0.03308138996362686,-0.054681722074747086,0.04959540069103241,0.0,0.0639098510146141,92,0,487.9865417480469,-0.04959540069103241,900,900,900,900,0.0,0.0,0.0,1.5707963267948966
1729765574336567585,0.001692419988103211,-0.0009531320538371801,0.002020573941990733,-0.14317099750041962,-0.012542185373604298,-9.823235511779785,0.00836278684437275,-0.21613352000713348,0.42483314871788025,-0.0010018798056989908,-0.012870166450738907,1.6129604578018188,0.07072129100561142,-0.050277844071388245,0.10467033088207245,0.033112820237874985,-0.05442635715007782,0.049424681812524796,0.0,0.06370782852172852,92,0,487.9865417480469,-0.049424681812524796,900,900,900,900,0.0,0.0,0.0,1.5707963267948966
1729765574343804867,0.0008934735087677836,-0.00015418254770338535,0.0009553083800710738,-0.15155068039894104,-0.04606100916862488,-9.804081916809082,0.00836278684437275,-0.21613352000713348,0.42483314871788025,-0.0009975152788683772,-0.012871665880084038,1.6129639148712158,0.07072839140892029,-0.05036139860749245,0.10466614365577698,0.03331548348069191,-0.054422587156295776,0.04923125356435776,0.0,0.06381018459796906,92,0,487.9865417480469,-0.04923125356435776,900,900,900,900,0.0,0.0,0.0,1.5707963267948966
1729765574351956352,-0.000704423408024013,-0.0009531320538371801,-0.00037627192796207964,-0.15274780988693237,-0.007753782905638218,-9.79211139678955,0.00836278684437275,-0.21613352000713348,0.42483314871788025,-0.0009995941072702408,-0.012877527624368668,1.6129627227783203,0.07074474543333054,-0.05045761913061142,0.10467402637004852,0.033441442996263504,-0.054458074271678925,0.049199577420949936,0.0,0.06390627473592758,92,0,487.9865417480469,-0.049199577420949936,900,900,900,900,0.0,0.0,0.0,1.5707963267948966
1729765574359387979,-0.0015033722156658769,0.000378449447453022,-0.0017078528180718422,-0.11204636096954346,0.012596932239830494,-9.780141830444336,0.00836278684437275,-0.21613352000713348,0.42483314871788025,-0.001008157036267221,-0.01287669874727726,1.612950086593628,0.07076813280582428,-0.050565723329782486,0.10467526316642761,0.0332941897213459,-0.05429133027791977,0.0492795966565609,0.0,0.06368713825941086,92,0,487.9865417480469,-0.0492795966565609,900,900,900,900,0.0,0.0,0.0,1.5707963267948966
1729765574368337143,0.0008934730431064963,-0.0004204993601888418,-0.0019741670694202185,-0.12521448731422424,-0.002965378575026989,-9.79450511932373,0.007340040523558855,-0.21653789281845093,0.42990919947624207,-0.0010041181230917573,-0.01288304477930069,1.6129344701766968,0.07079797983169556,-0.05068408325314522,0.10468925535678864,0.03327424079179764,-0.0541079118847847,0.0492202565073967,0.0,0.0635204017162323,92,0,487.9865417480469,-0.0492202565073967,900,900,900,900,0.0,0.0,0.0,1.5707963267948966
1729765574375706828,-0.0004381091275718063,0.001443714601919055,0.0004226770834065974,-0.12042608857154846,0.031750552356243134,-9.771761894226074,0.008634834550321102,-0.20832417905330658,0.4315880835056305,-0.001006838632747531,-0.01287313736975193,1.612931728363037,0.07083426415920258,-0.050812650471925735,0.1047162413597107,0.033099252730607986,-0.053930092602968216,0.0493994802236557,0.0,0.06327728927135468,92,0,487.98651123046875,-0.0493994802236557,900,900,900,900,0.0,0.0,0.0,1.5707963267948966
1729765574383922502,-0.00017178847338072956,-0.0014857633505016565,-0.0025068004615604877,-0.12162318825721741,0.0078085316345095634,-9.786126136779785,0.008634834550321102,-0.20832417905330658,0.4315880835056305,-0.0010075158206745982,-0.012882175855338573,1.6129218339920044,0.07087568938732147,-0.0509510263800621,0.1047561764717102,0.03294140100479126,-0.05374019593000412,0.04944871738553047,0.0,0.06303288787603378,92,0,487.9864501953125,-0.04944871738553047,900,900,900,900,0.0,0.0,0.0,1.5707963267948966
1729765574391203881,0.0008934714132919908,0.003307926934212446,0.0017542578279972076,-0.15394490957260132,-0.02211899310350418,-9.783730506896973,0.008634834550321102,-0.20832417905330658,0.4315880835056305,-0.0010010743280872703,-0.012862227857112885,1.6129268407821655,0.07092391699552536,-0.051099829375743866,0.10480812937021255,0.033102843910455704,-0.053786687552928925,0.04947974160313606,0.0,0.06315699964761734,92,0,487.9864196777344,-0.04947974160313606,900,900,900,900,0.0,0.0,0.0,1.5707963267948966
1729765574399299371,-0.0023023197427392006,0.0006447643972933292,0.00042267650132998824,-0.1587333083152771,0.034144748002290726,-9.783730506896973,0.008634834550321102,-0.20832417905330658,0.4315880835056305,-0.0010108143324032426,-0.012851675041019917,1.61293625831604,0.07097814977169037,-0.05126010626554489,0.1048724502325058,0.03282013162970543,-0.05391194671392441,0.04961863532662392,0.0,0.06311623752117157,92,0,487.9863586425781,-0.04961863532662392,900,900,900,900,0.0,0.0,0.0,1.5707963267948966
1729765574407630624,-0.002568637253716588,-0.0022847119253128767,0.0001563628320582211,-0.14197389781475067,0.011399834416806698,-9.828025817871094,0.008634834550321102,-0.20832417905330658,0.4315880835056305,-0.0010323052993044257,-0.012863331474363804,1.612938404083252,0.07103759050369263,-0.051432009786367416,0.1049475222826004,0.032785579562187195,-0.05401170626282692,0.04938802868127823,0.0,0.06318353116512299,92,0,487.98626708984375,-0.04938802868127823,900,900,900,900,0.0,0.0,0.0,1.5707963267948966
1729765574415216492,-0.0007044236408546567,0.00011213310062885284,-0.0006425867904908955,-0.14915648102760315,0.017385333776474,-9.818449020385742,0.008634834550321102,-0.20832417905330658,0.4315880835056305,-0.001043214462697506,-0.012869521044194698,1.6129374504089355,0.07110225409269333,-0.05161400884389877,0.10499970614910126,0.03262483701109886,-0.053980663418769836,0.049096815288066864,0.0,0.06307370215654373,92,0,487.9862060546875,-0.049096815288066864,900,900,900,900,0.0,0.0,0.0,1.5707963267948966
1729765574423102019,0.001692421967163682,0.0001121333334594965,-0.0014415341429412365,-0.15753620862960815,0.03893314674496651,-9.801688194274902,0.008634834550321102,-0.20832417905330658,0.4315880835056305,-0.001036039786413312,-0.012869201600551605,1.6129310131072998,0.0711711049079895,-0.0518069788813591,0.10506211221218109,0.03231324627995491,-0.05418376252055168,0.04903576523065567,0.0,0.06308744847774506,92,0,487.98614501953125,-0.04903576523065567,900,900,900,900,0.0,0.0,0.0,1.5707963267948966
1729765574430586278,0.00036083863233216107,0.0006447643972933292,0.00122162327170372,-0.11563766747713089,0.010202732868492603,-9.788521766662598,0.008634834550321102,-0.20832417905330658,0.4315880835056305,-0.0010237317765131593,-0.01286130677908659,1.6129332780838013,0.07124409824609756,-0.05200997740030289,0.10513545572757721,0.03219979256391525,-0.054053597152233124,0.049059268087148666,0.0,0.0629175454378128,92,0,487.986083984375,-0.049059268087148666,900,900,900,900,0.0,0.0,0.0,1.5707963267948966
1729765574439491023,-0.0015033696545287967,-0.0004205005243420601,-0.0014415350742638111,-0.1132434606552124,0.0030201254412531853,-9.79330825805664,0.008634834550321102,-0.20832417905330658,0.4315880835056305,-0.0010370335076004267,-0.012860779650509357,1.6129335165023804,0.07132233679294586,-0.05222081020474434,0.10521984845399857,0.032171450555324554,-0.05381854996085167,0.049073223024606705,0.0,0.06270118802785873,92,0,487.9859924316406,-0.049073223024606705,900,900,900,900,0.0,0.0,0.0,1.5707963267948966
1729765574449018605,0.0014261084143072367,0.0001121333334594965,-0.0030394308269023895,-0.16232459247112274,-0.01972479373216629,-9.805278778076172,0.008634834550321102,-0.20832417905330658,0.4315880835056305,-0.0010385653004050255,-0.01287723146378994,1.6129252910614014,0.07140634208917618,-0.05244026705622673,0.10531450808048248,0.0322418250143528,-0.05392112582921982,0.04897604137659073,0.0,0.06282533705234528,92,0,487.98590087890625,-0.04897604137659073,900,900,900,900,0.0,0.0,0.0,1.5707963267948966
1729765574457941572,0.0006271552992984653,0.0009110821411013603,-0.0011752203572541475,-0.14436809718608856,-0.030498702079057693,-9.79211139678955,0.008634834550321102,-0.20832417905330658,0.4315880835056305,-0.0010304730385541916,-0.012872319668531418,1.612910509109497,0.0714968889951706,-0.05266987159848213,0.10541876405477524,0.032457973808050156,-0.05403168871998787,0.0489395409822464,0.0,0.06303128600120544,92,0,487.9858093261719,-0.0489395409822464,900,900,900,900,0.0,0.0,0.0,1.5707963267948966
1729765574464012092,0.0003608409024309367,-0.0009531315881758928,0.0017542571295052767,-0.13239707052707672,-0.008950881659984589,-9.823235511779785,0.008634834550321102,-0.20832417905330658,0.4315880835056305,-0.0010270639322698116,-0.012874789535999298,1.6129255294799805,0.07159405946731567,-0.05290810018777847,0.10553273558616638,0.032538264989852905,-0.053939808160066605,0.04881772771477699,0.0,0.06299398094415665,92,0,487.9856872558594,-0.04881772771477699,900,900,900,900,0.0,0.0,0.0,1.5707963267948966
1729765574471161545,-0.001769691240042448,-0.00042049866169691086,0.0030858374666422606,-0.12760867178440094,-0.02211899682879448,-9.805278778076172,0.008634834550321102,-0.20832417905330658,0.4315880835056305,-0.0010397444711998105,-0.012880410067737103,1.6129471063613892,0.07169733941555023,-0.0531545951962471,0.10565506666898727,0.03269597515463829,-0.053909774869680405,0.04867425188422203,0.0,0.06304990500211716,92,0,487.9855651855469,-0.04867425188422203,900,900,900,900,0.0,0.0,0.0,1.5707963267948966
1729765574479112514,0.0016924254596233368,-0.00148576102219522,0.0006889948272146285,-0.1587333083152771,0.018582437187433243,-9.816054344177246,0.008634834550321102,-0.20832417905330658,0.4315880835056305,-0.0010321477893739939,-0.012888138182461262,1.612964153289795,0.07180683314800262,-0.05340931937098503,0.10579033941030502,0.0327262207865715,-0.05398854613304138,0.04850952327251434,0.0,0.06313294172286987,92,0,487.98541259765625,-0.04850952327251434,900,900,900,900,0.0,0.0,0.0,1.5707963267948966
1729765574486657321,-0.002302320674061775,-0.0014857628848403692,-0.0006425905739888549,-0.16232459247112274,0.011399834416806698,-9.824433326721191,0.008634834550321102,-0.20832417905330658,0.4315880835056305,-0.0010434789583086967,-0.012899065390229225,1.6129610538482666,0.07192042469978333,-0.05367356538772583,0.10593341290950775,0.03259216248989105,-0.05420592799782753,0.04832183197140694,0.0,0.06324975192546844,92,0,487.98529052734375,-0.04832183197140694,900,900,900,900,0.0,0.0,0.0,1.5707963267948966
1729765574494949253,0.0008934726938605309,-0.00015418208204209805,0.0001563627738505602,-0.161127507686615,-0.011345084756612778,-9.801688194274902,0.008634834550321102,-0.20832417905330658,0.4315880835056305,-0.0010431770933791995,-0.012901458889245987,1.6129640340805054,0.07203896343708038,-0.05394745618104935,0.10608401149511337,0.03271425887942314,-0.054416507482528687,0.048218511044979095,0.0,0.06349314004182816,92,0,487.9851379394531,-0.048218511044979095,900,900,900,900,0.0,0.0,0.0,1.5707963267948966
1729765574502945207,-0.0020360033959150314,-0.0038826081436127424,-0.0033057506661862135,-0.126411572098732,0.02576504275202751,-9.81006908416748,0.008634834550321102,-0.20832417905330658,0.4315880835056305,-0.0010532415471971035,-0.012921983376145363,1.6129447221755981,0.07216199487447739,-0.054230011999607086,0.10624262690544128,0.032532673329114914,-0.05441693589091301,0.04812520369887352,0.0,0.06340014189481735,92,0,487.9849853515625,-0.04812520369887352,900,900,900,900,0.0,0.0,0.0,1.5707963267948966
1729765574510878122,-0.0014964366564527154,0.00036572618409991264,-0.00011124328011646867,-0.1432037651538849,-0.008968701586127281,-9.820890426635742,0.009051394648849964,-0.21665963530540466,0.4306142330169678,-0.001065595424734056,-0.01293078064918518,1.6129380464553833,0.07181349396705627,-0.05367819964885712,0.10569942742586136,0.03237255662679672,-0.05399516224861145,0.047758784145116806,0.0,0.06295602023601532,92,0,487.9855041503906,-0.047758784145116806,900,900,900,900,0.0,0.0,0.0,1.5707963267948966
1729765574518769197,-0.003094330197200179,-0.0004332244861871004,-0.0011765063973143697,-0.14679506421089172,0.012579113245010376,-9.776596069335938,0.012121816165745258,-0.2139754295349121,0.4293021559715271,-0.0010803255718201399,-0.012944318354129791,1.6129344701766968,0.07147999852895737,-0.05315256118774414,0.10518006235361099,0.03213280066847801,-0.053754519671201706,0.04752448946237564,0.0,0.06262639164924622,92,0,487.98602294921875,-0.04752448946237564,900,900,900,900,0.0,0.0,0.0,1.5707963267948966
1729765574531194884,-0.002029067138209939,-0.0006995396688580513,-0.0014428196009248495,-0.15517477691173553,-0.022136813029646873,-9.81610107421875,0.012121816165745258,-0.2139754295349121,0.4293021559715271,-0.0010970612056553364,-0.01296214573085308,1.6129225492477417,0.07116100937128067,-0.052652839571237564,0.10468505322933197,0.032066233456134796,-0.053546443581581116,0.04723696783185005,0.0,0.06241365894675255,92,0,487.9865417480469,-0.04723696783185005,900,900,900,900,0.0,0.0,0.0,1.5707963267948966
1729765574538939021,-0.0012301186798140407,0.0014309898251667619,-0.00011124199954792857,-0.12524725496768951,-0.030516522005200386,-9.781386375427246,0.012121816165745258,-0.2139754295349121,0.4293021559715271,-0.0010968726128339767,-0.012964007444679737,1.612920880317688,0.07085796445608139,-0.052177634090185165,0.10420595854520798,0.03217526525259018,-0.05312925949692726,0.04707922786474228,0.0,0.06211252510547638,92,0,487.98699951171875,-0.04707922786474228,900,900,900,900,0.0,0.0,0.0,1.5707963267948966
1729765574547557481,-0.00043117054156027734,0.002229938516393304,0.0009540232131257653,-0.1384153664112091,0.019761720672249794,-9.78138542175293,0.012121816165745258,-0.2139754295349121,0.4293021559715271,-0.0010967999696731567,-0.012963755056262016,1.6129294633865356,0.07056915760040283,-0.05172555521130562,0.1037505567073822,0.03186345100402832,-0.0527954176068306,0.04696733504533768,0.0,0.06166551634669304,92,0,487.9874572753906,-0.04696733504533768,900,900,900,900,0.0,0.0,0.0,1.5707963267948966
1729765574553776446,0.0014330438571050763,0.0014309899415820837,-0.00011124141747131944,-0.1515834629535675,-0.0161513090133667,-9.783778190612793,0.012121816165745258,-0.2139754295349121,0.4293021559715271,-0.001082758535631001,-0.012956082820892334,1.612930417060852,0.07029352337121964,-0.05129704624414444,0.1033184826374054,0.031813472509384155,-0.05262186750769615,0.04688611626625061,0.0,0.06149112060666084,92,0,487.9878845214844,-0.04688611626625061,900,900,900,900,0.0,0.0,0.0,1.5707963267948966
1729765574561966715,0.0009004116291180253,-0.0014984873123466969,-0.0003775586956180632,-0.1408095508813858,-0.019742611795663834,-9.808919906616211,0.012121816165745258,-0.2139754295349121,0.4293021559715271,-0.0010654861107468605,-0.012982532382011414,1.612930417060852,0.0700322836637497,-0.05089128762483597,0.10290845483541489,0.03185892105102539,-0.05231313779950142,0.046633075922727585,0.0,0.06125075742602348,92,0,487.9883117675781,-0.046633075922727585,900,900,900,900,0.0,0.0,0.0,1.5707963267948966
1729765574569726076,0.0019656731747090816,-0.001764803659170866,0.0012203401420265436,-0.12165595591068268,0.008987810462713242,-9.773006439208984,0.012121816165745258,-0.2139754295349121,0.4293021559715271,-0.0010461012134328485,-0.013004748150706291,1.61293363571167,0.06978411972522736,-0.05050719529390335,0.10251951962709427,0.03162974491715431,-0.05197034776210785,0.046551305800676346,0.0,0.06083878502249718,92,0,487.98870849609375,-0.046551305800676346,900,900,900,900,0.0,0.0,0.0,1.5707963267948966
1729765574577645794,0.001433044672012329,-0.0014984868466854095,-0.00011124112643301487,-0.13362693786621094,-0.02093971148133278,-9.780189514160156,0.012121816165745258,-0.2139754295349121,0.4293021559715271,-0.001027769292704761,-0.013031259179115295,1.6129376888275146,0.06954821199178696,-0.05014335736632347,0.10215248912572861,0.031580932438373566,-0.05159136652946472,0.04653545096516609,0.0,0.060489870607852936,92,0,487.98907470703125,-0.04653545096516609,900,900,900,900,0.0,0.0,0.0,1.5707963267948966
1729765574587779883,0.00116672832518816,-0.0012321723625063896,0.00015507388161495328,-0.14440086483955383,0.017367515712976456,-9.793355941772461,0.012121816165745258,-0.2139754295349121,0.4293021559715271,-0.0010094245662912726,-0.01305247563868761,1.6129426956176758,0.06932522356510162,-0.04980006068944931,0.10180630534887314,0.03146255388855934,-0.05138586089015007,0.04641003906726837,0.0,0.06025279313325882,92,0,487.9894104003906,-0.04641003906726837,900,900,900,900,0.0,0.0,0.0,1.5707963267948966
1729765574593888434,-0.0006974850548431277,0.00089835817925632,-0.0022417716681957245,-0.16594865918159485,0.029338527470827103,-9.786172866821289,0.012121816165745258,-0.2139754295349121,0.4293021559715271,-0.00100357411429286,-0.01306203007698059,1.6129275560379028,0.06911257654428482,-0.04947787523269653,0.10147999227046967,0.03106878697872162,-0.05135023966431618,0.04631368815898895,0.0,0.06001763418316841,92,0,487.98974609375,-0.04631368815898895,900,900,900,900,0.0,0.0,0.0,1.5707963267948966
1729765574602389256,0.0006340938853099942,0.0008983577135950327,-0.00011124077718704939,-0.12165595591068268,-0.04129042848944664,-9.8101167678833,0.012121816165745258,-0.2139754295349121,0.4293021559715271,-0.000994639121927321,-0.013067345134913921,1.6129229068756104,0.0689111277461052,-0.04917587712407112,0.10117754340171814,0.031180020421743393,-0.0510038323700428,0.046062830835580826,0.0,0.059779465198516846,92,0,487.99005126953125,-0.046062830835580826,900,900,900,900,0.0,0.0,0.0,1.5707963267948966
1729765574610822704,-0.00043117228779010475,-0.00016690650954842567,0.0022856041323393583,-0.1515834480524063,-0.010165802203118801,-9.830467224121094,0.012121816165745258,-0.2139754295349121,0.4293021559715271,-0.0009915721602737904,-0.013080541975796223,1.6129302978515625,0.06872227787971497,-0.048892516642808914,0.10089244693517685,0.031134722754359245,-0.050801027566194534,0.045707203447818756,0.0,0.059582844376564026,92,0,487.9903259277344,-0.045707203447818756,900,900,900,900,0.0,0.0,0.0,1.5707963267948966
1729765574618313984,-0.0001648490724619478,-0.001232172828167677,0.0004213913343846798,-0.1384153664112091,-0.03889622911810875,-9.814903259277344,0.012121816165745258,-0.2139754295349121,0.4293021559715271,-0.0009867678163573146,-0.013094163499772549,1.6129419803619385,0.06854578107595444,-0.04862862452864647,0.10062387585639954,0.03130270168185234,-0.050651583820581436,0.04542510211467743,0.0,0.05954361706972122,92,0,487.9906005859375,-0.04542510211467743,900,900,900,900,0.0,0.0,0.0,1.5707963267948966
1729765574628931579,-0.0012301186798140407,-0.0009658560156822205,-0.0006438771961256862,-0.11327622830867767,0.026944324374198914,-9.848423957824707,0.012121816165745258,-0.2139754295349121,0.4293021559715271,-0.00098416768014431,-0.013122087344527245,1.6129333972930908,0.06838134676218033,-0.048382338136434555,0.10037053376436234,0.031143290922045708,-0.05023162066936493,0.04485157132148743,0.0,0.0591026246547699,92,0,487.9908447265625,-0.04485157132148743,900,900,900,900,0.0,0.0,0.0,1.5707963267948966
1729765574635697762,-0.0006974859861657023,0.0024962539318948984,-0.0011765055824071169,-0.13602116703987122,-0.024531014263629913,-9.812509536743164,0.012121816165745258,-0.2139754295349121,0.4293021559715271,-0.000990403350442648,-0.013112098909914494,1.6129226684570312,0.06822674721479416,-0.04815272241830826,0.10013195872306824,0.031085943803191185,-0.04994501173496246,0.04456078261137009,0.0,0.05882890522480011,92,0,487.9910888671875,-0.04456078261137009,900,900,900,900,0.0,0.0,0.0,1.5707963267948966
1729765574643747565,-0.001496434910222888,9.940890595316887e-05,0.0012203389778733253,-0.14559796452522278,-0.05685274302959442,-9.81610107421875,0.012121816165745258,-0.2139754295349121,0.4293021559715271,-0.0009918195428326726,-0.013114246539771557,1.6129246950149536,0.06808474659919739,-0.047940608114004135,0.0999092385172844,0.03144657984375954,-0.04979441687464714,0.04432757571339607,0.0,0.058892879635095596,92,0,487.9913024902344,-0.04432757571339607,900,900,900,900,0.0,0.0,0.0,1.5707963267948966
1729765574651425980,-0.0006974844727665186,-0.0009658564813435078,-0.0003775562800001353,-0.15038634836673737,-0.004180298186838627,-9.83525562286377,0.006996552459895611,-0.21617081761360168,0.4317680895328522,-0.0009967329679057002,-0.013133869506418705,1.612923502922058,0.06795500963926315,-0.04774577543139458,0.09970125555992126,0.031428996473550797,-0.04963596537709236,0.04391861334443092,0.0,0.05874956026673317,92,0,487.99151611328125,-0.04391861334443092,900,900,900,900,0.0,0.0,0.0,1.5707963267948966
1729765574660817712,0.0032972560729831457,0.0008983577135950327,-0.00011124025331810117,-0.12045885622501373,-0.006574501283466816,-9.801736831665039,0.006996552459895611,-0.21617081761360168,0.4317680895328522,-0.0009652902954258025,-0.013140197843313217,1.6129151582717896,0.0678357183933258,-0.04756744205951691,0.09948873519897461,0.03143065795302391,-0.04927404597401619,0.04354726895689964,0.0,0.058444999158382416,92,0,487.9917297363281,-0.04354726895689964,900,900,900,900,0.0,0.0,0.0,1.5707963267948966
1729765574669000698,0.003297256538644433,0.0006320418324321508,-0.0003775577642954886,-0.14679506421089172,0.01617041788995266,-9.794551849365234,0.005930281709879637,-0.21432770788669586,0.4279036819934845,-0.0009499528096057475,-0.013141384348273277,1.6129124164581299,0.06772641837596893,-0.04740409180521965,0.09929130971431732,0.03130638971924782,-0.049058228731155396,0.043424129486083984,0.0,0.05819621682167053,92,0,487.9919128417969,-0.043424129486083984,900,900,900,900,0.0,0.0,0.0,1.5707963267948966
1729765574677082241,-0.0012301175156608224,0.0019636237993836403,-0.004105984233319759,-0.1168675348162651,-0.010165803134441376,-9.780189514160156,0.005930281709879637,-0.21432770788669586,0.4279036819934845,-0.0009459757129661739,-0.013131416402757168,1.6128854751586914,0.06762614846229553,-0.047256533056497574,0.09910982102155685,0.03123609535396099,-0.048792529851198196,0.04340336471796036,0.0,0.057934485375881195,92,0,487.9920959472656,-0.04340336471796036,900,900,900,900,0.0,0.0,0.0,1.5707963267948966
1729765574693012644,-0.0020290680695325136,-0.0006995387375354767,-0.003839667420834303,-0.10848783701658249,-0.03291071951389313,-9.79574966430664,0.005930281709879637,-0.21432770788669586,0.4279036819934845,-0.0009571460541337729,-0.013141056522727013,1.6128517389297485,0.06753597408533096,-0.047123104333877563,0.09894463419914246,0.03136172518134117,-0.048392072319984436,0.04339977726340294,0.0,0.057665854692459106,92,0,487.9922790527344,-0.04339977726340294,900,900,900,900,0.0,0.0,0.0,1.5707963267948966
1729765574696976309,0.0006340901600196958,-0.0014984868466854095,0.00042139424476772547,-0.13482403755187988,0.008987810462713242,-9.805326461791992,0.005930281709879637,-0.21432770788669586,0.4279036819934845,-0.0009572668932378292,-0.013157481327652931,1.612842321395874,0.06745591014623642,-0.047003358602523804,0.09879416972398758,0.031296659260988235,-0.04812822863459587,0.043208323419094086,0.0,0.057409122586250305,92,0,487.992431640625,-0.043208323419094086,900,900,900,900,0.0,0.0,0.0,1.5707963267948966
1729765574702588836,-0.0014964347938075662,-0.00016690907068550587,0.0022856013383716345,-0.162357360124588,0.017367515712976456,-9.818496704101562,0.005930281709879637,-0.21432770788669586,0.4279036819934845,-0.0009569908143021166,-0.013163682073354721,1.612858533859253,0.0673842504620552,-0.04689877852797508,0.09865772724151611,0.03113647922873497,-0.048133961856365204,0.04301866516470909,0.0,0.05732676759362221,92,0,487.9925537109375,-0.04301866516470909,900,900,900,900,0.0,0.0,0.0,1.5707963267948966
1729765574709082169,0.0011667286744341254,0.001430990407243371,-0.0006438714917749166,-0.15278057754039764,-0.026925217360258102,-9.829270362854004,0.005930281709879637,-0.21432770788669586,0.4279036819934845,-0.0009568749228492379,-0.01316079031676054,1.6128631830215454,0.0673210546374321,-0.04680986329913139,0.09853370487689972,0.031194603070616722,-0.04809201508760452,0.04263385757803917,0.0,0.057323165237903595,92,0,487.99267578125,-0.04263385757803917,900,900,900,900,0.0,0.0,0.0,1.5707963267948966
1729765574716981077,0.001166724949143827,-0.0012321723625063896,-0.001176508842036128,-0.16834287345409393,0.004199407063424587,-9.806523323059082,0.005930281709879637,-0.21432770788669586,0.4279036819934845,-0.0009376134839840233,-0.01317121833562851,1.6128478050231934,0.06726700067520142,-0.046736713498830795,0.09842196851968765,0.031123243272304535,-0.04822288826107979,0.04244337975978851,0.0,0.05739428102970123,92,0,487.9927978515625,-0.04244337975978851,900,900,900,900,0.0,0.0,0.0,1.5707963267948966
1729765574724412942,-0.0022953825537115335,0.000898357480764389,-0.00011124269803985953,-0.15517477691173553,-0.030516520142555237,-9.806524276733398,0.005930281709879637,-0.21432770788669586,0.4279036819934845,-0.0009497106657363474,-0.013169397599995136,1.6128464937210083,0.0672217532992363,-0.04667901247739792,0.09834592044353485,0.03125167638063431,-0.0482184924185276,0.0423087514936924,0.0,0.05746033787727356,92,0,487.99285888671875,-0.0423087514936924,900,900,900,900,0.0,0.0,0.0,1.5707963267948966
1729765574733629688,-0.0012301182141527534,0.0006320418324321508,-0.0001112395548261702,-0.14440086483955383,0.017367515712976456,-9.831663131713867,0.005930281709879637,-0.21432770788669586,0.4279036819934845,-0.0009747677249833941,-0.013160375878214836,1.6128448247909546,0.06718654185533524,-0.04663558676838875,0.09828153252601624,0.031391702592372894,-0.048132482916116714,0.04201722890138626,0.0,0.05746455118060112,92,0,487.9929504394531,-0.04201722890138626,900,900,900,900,0.0,0.0,0.0,1.5707963267948966
1729765574741930561,0.00010146168642677367,0.0011646740604192019,0.0006877079140394926,-0.140809565782547,0.012579113245010376,-9.786172866821289,0.005930281709879637,-0.21432770788669586,0.4279036819934845,-0.000978013384155929,-0.013147805817425251,1.6128523349761963,0.06715922802686691,-0.04660575091838837,0.09822772443294525,0.031229518353939056,-0.04805351421236992,0.04185931012034416,0.0,0.05730988830327988,92,0,487.99298095703125,-0.04185931012034416,900,900,900,900,0.0,0.0,0.0,1.5707963267948966
1729765574748093341,-0.001496433513239026,0.0011646731290966272,0.0009540240280330181,-0.11806464195251465,-0.008968701586127281,-9.79934310913086,0.005930281709879637,-0.21432770788669586,0.4279036819934845,-0.0009834237862378359,-0.013144075870513916,1.612856149673462,0.06713930517435074,-0.04658851400017738,0.09818661212921143,0.031212490051984787,-0.04780104011297226,0.04189968481659889,0.0,0.05708904564380646,92,0,487.9930419921875,-0.04189968481659889,900,900,900,900,0.0,0.0,0.0,1.5707963267948966
1729765574757046059,-0.001762748695909977,-0.0020311204716563225,0.00015507411444559693,-0.12045885622501373,-0.006574501283466816,-9.802932739257812,0.005930281709879637,-0.21432770788669586,0.4279036819934845,-0.0009944201447069645,-0.013159665279090405,1.6128640174865723,0.06712726503610611,-0.0465829074382782,0.09815709292888641,0.03120562806725502,-0.04757049307227135,0.04176684841513634,0.0,0.056892383843660355,92,0,487.9930725097656,-0.04176684841513634,900,900,900,900,0.0,0.0,0.0,1.5707963267948966
1729765574765997819,0.00010146221029572189,-0.00016690697520971298,-0.0011765046510845423,-0.13602116703987122,0.0006081052124500275,-9.806524276733398,0.005930281709879637,-0.21432770788669586,0.4279036819934845,-0.000996880466118455,-0.013163194060325623,1.6128560304641724,0.06712286919355392,-0.046588875353336334,0.09813860058784485,0.03117215447127819,-0.04741385579109192,0.04165152460336685,0.0,0.0567430779337883,92,0,487.9930725097656,-0.04165152460336685,900,900,900,900,0.0,0.0,0.0,1.5707963267948966
1729765574778672149,-0.002295383485034108,0.0014309899415820837,0.00015507196076214314,-0.13961246609687805,0.012579113245010376,-9.801736831665039,0.005930281709879637,-0.21432770788669586,0.4279036819934845,-0.0010070843854919076,-0.013159995898604393,1.6128566265106201,0.0671258270740509,-0.04660670831799507,0.09813103079795837,0.031120290979743004,-0.04730282723903656,0.041582703590393066,0.0,0.056621816009283066,92,0,487.9930725097656,-0.041582703590393066,900,900,900,900,0.0,0.0,0.0,1.5707963267948966
1729765574782614316,-0.0006974847055971622,9.940867312252522e-05,-0.00037755476660095155,-0.12405015528202057,-0.014954207465052605,-9.81610107421875,0.005930281709879637,-0.21432770788669586,0.4279036819934845,-0.0010206884471699595,-0.013154367916285992,1.6128606796264648,0.06713590770959854,-0.04663629084825516,0.09813111275434494,0.031167322769761086,-0.047154199331998825,0.04140270873904228,0.0,0.056523628532886505,92,0,487.9930725097656,-0.04140270873904228,900,900,900,900,0.0,0.0,0.0,1.5707963267948966
1729765574790762095,0.000367777916835621,-0.002031119540333748,-0.00011124240700155497,-0.13961246609687805,-0.008968702517449856,-9.792160034179688,0.005930281709879637,-0.21432770788669586,0.4279036819934845,-0.001015202607959509,-0.013165525160729885,1.6128603219985962,0.06715362519025803,-0.046676892787218094,0.0981411337852478,0.031208792701363564,-0.047036148607730865,0.04132664576172829,0.0,0.05644810199737549,92,0,487.9930725097656,-0.04132664576172829,900,900,900,900,0.0,0.0,0.0,1.5707963267948966
1729765574796758184,0.003030940890312195,-0.0009658560156822205,-0.001709135714918375,-0.1432037651538849,0.01138201542198658,-9.79934310913086,0.005930281709879637,-0.21432770788669586,0.4279036819934845,-0.0009969630045816302,-0.013174324296414852,1.6128525733947754,0.06717811524868011,-0.04672901704907417,0.0981619730591774,0.031097982078790665,-0.04701158404350281,0.04132959246635437,0.0,0.05636642128229141,92,0,487.9930419921875,-0.04132959246635437,900,900,900,900,0.0,0.0,0.0,1.5707963267948966
1729765574804622735,-0.0009638039628043771,-0.0014984873123466969,-0.0001112447353079915,-0.12045885622501373,-0.012560004368424416,-9.818496704101562,0.008058087900280952,-0.21443772315979004,0.4308333098888397,-0.0009970181854441762,-0.013189301826059818,1.612850308418274,0.06720927357673645,-0.04679194837808609,0.09819264709949493,0.031164279207587242,-0.04680886119604111,0.0411565788090229,0.0,0.056234169751405716,92,0,487.9930114746094,-0.0411565788090229,900,900,900,900,0.0,0.0,0.0,1.5707963267948966
1729765574813198365,-0.0022953811567276716,-0.0006995406001806259,-0.0009101902833208442,-0.14559796452522278,0.040112435817718506,-9.807722091674805,0.010637461207807064,-0.21824558079242706,0.41895610094070435,-0.0010131931630894542,-0.013193442486226559,1.6128513813018799,0.0672469213604927,-0.04686519876122475,0.09823198616504669,0.030973007902503014,-0.04677004739642143,0.040970392525196075,0.0,0.05609602853655815,92,0,487.99298095703125,-0.040970392525196075,900,900,900,900,0.0,0.0,0.0,1.5707963267948966
1729765574821258659,0.0006340934196487069,0.0014309898251667619,0.00015507545322179794,-0.11207912862300873,0.014973316341638565,-9.781386375427246,0.010637461207807064,-0.21824558079242706,0.41895610094070435,-0.0010113036260008812,-0.013186778873205185,1.6128491163253784,0.06728890538215637,-0.04694891348481178,0.09828119724988937,0.030730420723557472,-0.04658423736691475,0.04107683151960373,0.0,0.05580725893378258,92,0,487.9929504394531,-0.04107683151960373,900,900,900,900,0.0,0.0,0.0,1.5707963267948966
1729765574828609161,0.00010146349086426198,-0.00016690674237906933,0.0001550752785988152,-0.09891102463006973,-0.03889622911810875,-9.817298889160156,0.010637461207807064,-0.21824558079242706,0.41895610094070435,-0.0010117258643731475,-0.01318103726953268,1.6128559112548828,0.06733760237693787,-0.04704119637608528,0.09834031015634537,0.031010624021291733,-0.046225741505622864,0.040968798100948334,0.0,0.05566397309303284,92,0,487.9928894042969,-0.040968798100948334,900,900,900,900,0.0,0.0,0.0,1.5707963267948966
1729765574836349041,0.002498307731002569,-0.00016690674237906933,-0.00037755563971586525,-0.10729073733091354,0.03412692993879318,-9.777792930603027,0.010637461207807064,-0.21824558079242706,0.41895610094070435,-0.0009950804524123669,-0.013186903670430183,1.6128562688827515,0.06739276647567749,-0.04714127257466316,0.0984083041548729,0.03076239861547947,-0.04591476917266846,0.041001979261636734,0.0,0.05526745319366455,92,0,487.9927978515625,-0.041001979261636734,900,900,900,900,0.0,0.0,0.0,1.5707963267948966
1729765574844811260,0.0006340956315398216,0.0008983579464256763,-0.0027744031976908445,-0.09891102463006973,0.02455012872815132,-9.804129600524902,0.010637461207807064,-0.21824558079242706,0.41895610094070435,-0.00098894233815372,-0.01317884773015976,1.6128416061401367,0.06745218485593796,-0.04724900797009468,0.09851497411727905,0.030566398054361343,-0.04554874449968338,0.04101308435201645,0.0,0.05485428869724274,92,0,487.9927062988281,-0.04101308435201645,900,900,900,900,0.0,0.0,0.0,1.5707963267948966
1729765574853106777,-0.0009638031478971243,-0.00016690674237906933,0.0006877059349790215,-0.14559796452522278,0.0030023064464330673,-9.807722091674805,0.010637461207807064,-0.21824558079242706,0.41895610094070435,-0.0009916097624227405,-0.013176020234823227,1.6128450632095337,0.06751663237810135,-0.047364745289087296,0.09862931072711945,0.030547210946679115,-0.045451655983924866,0.040899232029914856,0.0,0.05476298928260803,92,0,487.9925842285156,-0.040899232029914856,900,900,900,900,0.0,0.0,0.0,1.5707963267948966
1729765574861020273,0.0009004140738397837,-0.0028300690464675426,-0.0027744013350456953,-0.13123273849487305,0.04130953922867775,-9.79694652557373,0.010637461207807064,-0.21824558079242706,0.41895610094070435,-0.0009877228876575828,-0.013194451108574867,1.6128334999084473,0.06758561730384827,-0.047490183264017105,0.09875133633613586,0.030241284519433975,-0.04543381556868553,0.0409066304564476,0.0,0.05457808077335358,92,0,487.9924621582031,-0.0409066304564476,900,900,900,900,0.0,0.0,0.0,1.5707963267948966
1729765574868744311,0.00010146154090762138,0.0024962546303868294,-0.00011124135926365852,-0.1515834480524063,-0.030516522005200386,-9.829270362854004,0.010637461207807064,-0.21824558079242706,0.41895610094070435,-0.0009881921578198671,-0.013181941583752632,1.6128273010253906,0.0676589086651802,-0.047624994069337845,0.0988805964589119,0.03031325526535511,-0.04545452073216438,0.04071517661213875,0.0,0.05463521555066109,92,0,487.9923400878906,-0.04071517661213875,900,900,900,900,0.0,0.0,0.0,1.5707963267948966
1729765574877837675,-0.001762749394401908,-0.0006995406001806259,0.0009540214668959379,-0.1539776772260666,0.04609794542193413,-9.81131362915039,0.010637461207807064,-0.21824558079242706,0.41895610094070435,-0.0009953229455277324,-0.013181100599467754,1.6128400564193726,0.06773854792118073,-0.04776940867304802,0.09901577979326248,0.030226310715079308,-0.045510731637477875,0.040540117770433426,0.0,0.054633840918540955,92,0,487.9921875,-0.040540117770433426,900,900,900,900,0.0,0.0,0.0,1.5707963267948966
1729765574885199297,-0.00043117013410665095,-0.002031120005995035,-0.001176502788439393,-0.18390518426895142,0.022155921906232834,-9.822086334228516,0.010637461207807064,-0.21824558079242706,0.41895610094070435,-0.0010054103331640363,-0.013189843855798244,1.6128334999084473,0.06782127916812897,-0.04792451858520508,0.09915714710950851,0.029943089932203293,-0.04583742842078209,0.04035908356308937,0.0,0.054750874638557434,92,0,487.9920654296875,-0.04035908356308937,900,900,900,900,0.0,0.0,0.0,1.5707963267948966
1729765574893175271,-0.0009638065239414573,-0.0033627008087933064,0.002285599708557129,-0.10130522400140762,0.03532402962446213,-9.8101167678833,0.010637461207807064,-0.21824558079242706,0.41895610094070435,-0.001004924182780087,-0.013234879821538925,1.6128493547439575,0.06790868192911148,-0.04809000343084335,0.09930489957332611,0.0300105232745409,-0.045798320323228836,0.04032429680228233,0.0,0.0547550693154335,92,0,487.9919128417969,-0.04032429680228233,900,900,900,900,0.0,0.0,0.0,1.5707963267948966
1729765574901465854,0.0003677787899505347,0.0019636224023997784,0.0004213916836306453,-0.12165594100952148,0.0006081052124500275,-9.807722091674805,0.010637461207807064,-0.21824558079242706,0.41895610094070435,-0.0010091044241562486,-0.013234972022473812,1.612860083580017,0.06800034642219543,-0.04826246574521065,0.09942708164453506,0.02974972128868103,-0.045530401170253754,0.04026704654097557,0.0,0.054388079792261124,92,0,487.9917907714844,-0.04026704654097557,900,900,900,900,0.0,0.0,0.0,1.5707963267948966
1729765574909988774,-0.0009638018673285842,0.0019636217039078474,0.00015507423086091876,-0.1192617416381836,-0.02572811394929886,-9.808919906616211,0.010637461207807064,-0.21824558079242706,0.41895610094070435,-0.00101189233828336,-0.013218141160905361,1.6128631830215454,0.06809624284505844,-0.04844171181321144,0.09955652803182602,0.029864385724067688,-0.045361150056123734,0.04018217697739601,0.0,0.05430944263935089,92,0,487.9916687011719,-0.04018217697739601,900,900,900,900,0.0,0.0,0.0,1.5707963267948966
1729765574916487763,-0.0004311704251449555,0.0008983591105788946,0.002285605063661933,-0.10489653050899506,0.01617041788995266,-9.838847160339355,0.010637461207807064,-0.21824558079242706,0.41895610094070435,-0.0010201554978266358,-0.013208769261837006,1.6128779649734497,0.06819798052310944,-0.0486273318529129,0.09969248622655869,0.029876500368118286,-0.04507894814014435,0.039957545697689056,0.0,0.05408065393567085,92,0,487.99151611328125,-0.039957545697689056,900,900,900,900,0.0,0.0,0.0,1.5707963267948966
1729765574927498141,0.0011667272774502635,0.0019636221695691347,-0.0003775579680223018,-0.13721826672554016,-0.03410782665014267,-9.825676918029785,0.010637461207807064,-0.21824558079242706,0.41895610094070435,-0.0009967058431357145,-0.013198872096836567,1.6128889322280884,0.0679406225681305,-0.04810270667076111,0.09937231242656708,0.029911842197179794,-0.04465547949075699,0.03947652876377106,0.0,0.053747840225696564,92,0,487.9918518066406,-0.03947652876377106,900,900,900,900,0.0,0.0,0.0,1.5707963267948966
1729765574933860610,-0.002828015713021159,0.0024962536990642548,0.00042138935532420874,-0.13602116703987122,-0.01854551210999489,-9.8101167678833,0.010637461207807064,-0.21824558079242706,0.41895610094070435,-0.0010055556194856763,-0.013194060884416103,1.6128909587860107,0.06769782304763794,-0.04760097712278366,0.09906843304634094,0.02998420223593712,-0.0443035252392292,0.03918801248073578,0.0,0.05349630489945412,92,0,487.9921569824219,-0.03918801248073578,900,900,900,900,0.0,0.0,0.0,1.5707963267948966
1729765574943719385,-0.0001648533798288554,0.0014309895923361182,-0.0006438717246055603,-0.14559796452522278,0.005396509543061256,-9.79934310913086,0.0071615902706980705,-0.21564334630966187,0.43085217475891113,-0.0010135670891031623,-0.013190868310630322,1.612888216972351,0.06746792793273926,-0.0471220389008522,0.09878174960613251,0.02981400676071644,-0.04406231269240379,0.03903792053461075,0.0,0.05320115014910698,92,0,487.992431640625,-0.03903792053461075,900,900,900,900,0.0,0.0,0.0,1.5707963267948966
1729765574949068695,-0.0001648529141675681,0.0011646738275885582,-0.0019754550885409117,-0.1432037651538849,0.017367515712976456,-9.79694652557373,0.0071615902706980705,-0.21564334630966187,0.43085217475891113,-0.0010054382728412747,-0.013195178471505642,1.6128747463226318,0.06724925339221954,-0.04666540399193764,0.09851265698671341,0.029532277956604958,-0.04378550499677658,0.03897060453891754,0.0,0.052814070135354996,92,0,487.9927062988281,-0.03897060453891754,900,900,900,900,0.0,0.0,0.0,1.5707963267948966
1729765574956219489,0.0016993586905300617,0.000898357480764389,0.0001550756860524416,-0.1168675348162651,-0.0041802977211773396,-9.81131362915039,0.006179421208798885,-0.21144796907901764,0.42567676305770874,-0.0009921033633872867,-0.01319632027298212,1.612871766090393,0.06704201549291611,-0.0462300106883049,0.09826004505157471,0.02947569079697132,-0.043388403952121735,0.0387333482503891,0.0,0.052453503012657166,92,0,487.9929504394531,-0.0387333482503891,900,900,900,900,0.0,0.0,0.0,1.5707963267948966
1729765574963763926,-0.000963802682235837,0.0022299373522400856,0.0006877060513943434,-0.12165595591068268,0.025747224688529968,-9.80053997039795,0.006179421208798885,-0.21144796907901764,0.42567676305770874,-0.000988434418104589,-0.013194302096962929,1.612876057624817,0.06684581190347672,-0.04581432789564133,0.0979921743273735,0.029193121939897537,-0.04297950863838196,0.038589317351579666,0.0,0.05195648968219757,92,0,487.99322509765625,-0.038589317351579666,900,900,900,900,0.0,0.0,0.0,1.5707963267948966
1729765574972593503,-0.00016485273954458535,0.0006320413667708635,-0.0009101887699216604,-0.14440086483955383,-0.037699125707149506,-9.804128646850586,0.006179421208798885,-0.21144796907901764,0.42567676305770874,-0.0009887100895866752,-0.013184258714318275,1.6128783226013184,0.06665988266468048,-0.04541793465614319,0.09774082899093628,0.029173050075769424,-0.042647626250982285,0.038435280323028564,0.0,0.051670949906110764,92,0,487.99346923828125,-0.038435280323028564,900,900,900,900,0.0,0.0,0.0,1.5707963267948966
1729765574980163291,0.00010146066779270768,0.0008983579464256763,0.0004213913343846798,-0.11806464195251465,-0.001786096952855587,-9.806523323059082,0.006179421208798885,-0.21144796907901764,0.42567676305770874,-0.0009829839691519737,-0.013198921456933022,1.6128743886947632,0.06648683547973633,-0.04504124075174332,0.09750563651323318,0.02928335778415203,-0.04233919084072113,0.03831023350358009,0.0,0.05147933587431908,92,0,487.99371337890625,-0.03831023350358009,900,900,900,900,0.0,0.0,0.0,1.5707963267948966
1729765574987793771,0.000634095398709178,-0.0014984877780079842,0.0017529705073684454,-0.10489653050899506,0.019761720672249794,-9.777792930603027,0.006179421208798885,-0.21144796907901764,0.42567676305770874,-0.0009708359139040112,-0.013216190971434116,1.6128884553909302,0.0663239061832428,-0.04468218982219696,0.09728594869375229,0.028981350362300873,-0.041818130761384964,0.03823129087686539,0.0,0.05087902024388313,92,0,487.9939270019531,-0.03823129087686539,900,900,900,900,0.0,0.0,0.0,1.5707963267948966
1729765574995950801,-0.0017627514898777008,9.940867312252522e-05,0.0009540218161419034,-0.10729073733091354,-0.005377399735152721,-9.816100120544434,0.006179421208798885,-0.21144796907901764,0.42567676305770874,-0.0009766921866685152,-0.0132292490452528,1.6128960847854614,0.06617053598165512,-0.044339556246995926,0.09708255529403687,0.028904620558023453,-0.04129624739289284,0.03816703334450722,0.0,0.050406914204359055,92,0,487.994140625,-0.03816703334450722,900,900,900,900,0.0,0.0,0.0,1.5707963267948966
1729765575003817429,-0.000697482842952013,-0.001764803659170866,0.00015507533680647612,-0.1432037651538849,0.019761720672249794,-9.80053997039795,0.006179421208798885,-0.21144796907901764,0.42567676305770874,-0.0009772158227860928,-0.013247670605778694,1.6129049062728882,0.06602682173252106,-0.044013962149620056,0.09689321368932724,0.02868717908859253,-0.04106925427913666,0.03794083744287491,0.0,0.050096284598112106,92,0,487.99432373046875,-0.03794083744287491,900,900,900,900,0.0,0.0,0.0,1.5707963267948966
1729765575012104775,0.0006340941763482988,0.0006320418324321508,-0.0003775557561311871,-0.13362693786621094,-0.028122317045927048,-9.79934310913086,0.006179421208798885,-0.21144796907901764,0.42567676305770874,-0.0009743525879457593,-0.013257619924843311,1.612900733947754,0.06589235365390778,-0.043706003576517105,0.09671840071678162,0.02868298999965191,-0.04079555720090866,0.03787824884057045,0.0,0.04986974596977234,92,0,487.9945068359375,-0.03787824884057045,900,900,900,900,0.0,0.0,0.0,1.5707963267948966
1729765575020372055,0.0006340956315398216,-0.0028300685808062553,-0.0009101933101192117,-0.10489653050899506,0.028141427785158157,-9.79694652557373,0.006179421208798885,-0.21144796907901764,0.42567676305770874,-0.0009578856406733394,-0.013283015228807926,1.6128965616226196,0.06576848030090332,-0.043414704501628876,0.09652625024318695,0.028591051697731018,-0.040413301438093185,0.03781355917453766,0.0,0.04950437694787979,92,0,487.99468994140625,-0.03781355917453766,900,900,900,900,0.0,0.0,0.0,1.5707963267948966
1729765575028024776,-0.0009638025658205152,-0.0006995396688580513,-0.0003775572404265404,-0.14679506421089172,-0.012560004368424416,-9.79934310913086,0.006179421208798885,-0.21144796907901764,0.42567676305770874,-0.0009651144500821829,-0.01330894697457552,1.6128935813903809,0.0656530037522316,-0.04313892498612404,0.09634871780872345,0.02846955880522728,-0.040128935128450394,0.03768983483314514,0.0,0.04920210689306259,92,0,487.994873046875,-0.03768983483314514,900,900,900,900,0.0,0.0,0.0,1.5707963267948966
1729765575035146081,-0.0014964347938075662,-0.0025637526996433735,-0.000377559190383181,-0.12165595591068268,-0.040093325078487396,-9.784975051879883,0.006179421208798885,-0.21144796907901764,0.42567676305770874,-0.0009672622545622289,-0.01333220861852169,1.6128904819488525,0.06554796546697617,-0.04287939518690109,0.09618575125932693,0.028692025691270828,-0.039833903312683105,0.03769078478217125,0.0,0.04909146949648857,92,0,487.9950256347656,-0.03769078478217125,900,900,900,900,0.0,0.0,0.0,1.5707963267948966
1729765575043034800,0.00010146360727958381,-0.0006995396688580513,-0.0009101888281293213,-0.16116027534008026,0.006593609228730202,-9.804129600524902,0.006179421208798885,-0.21144796907901764,0.42567676305770874,-0.0009653936140239239,-0.013350669294595718,1.6128897666931152,0.06545315682888031,-0.042635805904865265,0.09603732824325562,0.028615646064281464,-0.03973919898271561,0.0376216284930706,0.0,0.04896998405456543,92,0,487.99517822265625,-0.0376216284930706,900,900,900,900,0.0,0.0,0.0,1.5707963267948966
1729765575050927504,-0.00043117048335261643,0.0008983579464256763,-0.0006438734708353877,-0.13961246609687805,-0.01854551210999489,-9.816100120544434,0.006179421208798885,-0.21144796907901764,0.42567676305770874,-0.0009658477501943707,-0.013352617621421814,1.612884521484375,0.06536753475666046,-0.04240899905562401,0.09590194374322891,0.02868606708943844,-0.03962007910013199,0.03740883618593216,0.0,0.04891463369131088,92,0,487.99530029296875,-0.03740883618593216,900,900,900,900,0.0,0.0,0.0,1.5707963267948966
1729765575058269180,0.0006340943509712815,-0.0022974368184804916,0.0001550739980302751,-0.12165595591068268,0.017367515712976456,-9.8101167678833,0.006179421208798885,-0.21144796907901764,0.42567676305770874,-0.0009560015168972313,-0.01336999423801899,1.6128870248794556,0.06529100984334946,-0.04219737648963928,0.09577909857034683,0.028570344671607018,-0.03932986035943031,0.037269581109285355,0.0,0.048611752688884735,92,0,487.9954528808594,-0.037269581109285355,900,900,900,900,0.0,0.0,0.0,1.5707963267948966
1729765575064921692,0.0011667285580188036,0.00036572525277733803,-0.0011765044182538986,-0.11207912862300873,-0.01854551210999489,-9.817298889160156,0.006179421208798885,-0.21144796907901764,0.42567676305770874,-0.000946348998695612,-0.013384699821472168,1.6128851175308228,0.06522265076637268,-0.04199947416782379,0.09566833823919296,0.028587523847818375,-0.03893367573618889,0.03705453872680664,0.0,0.04830194264650345,92,0,487.99554443359375,-0.03705453872680664,900,900,900,900,0.0,0.0,0.0,1.5707963267948966
1729765575074911780,0.00036777896457351744,-0.0006995396688580513,-0.0006438743439503014,-0.1300356388092041,-0.014954205602407455,-9.832859992980957,0.006179421208798885,-0.21144796907901764,0.42567676305770874,-0.0009380278643220663,-0.013389271683990955,1.6128840446472168,0.0651632770895958,-0.041814737021923065,0.09556856006383896,0.028630487620830536,-0.038623541593551636,0.03671789541840553,0.0,0.04807788133621216,92,0,487.9956359863281,-0.03671789541840553,900,900,900,900,0.0,0.0,0.0,1.5707963267948966
1729765575084662711,-0.0006974845891818404,0.0011646735947579145,-0.0022417716681957245,-0.11806464195251465,0.0006081052124500275,-9.812509536743164,0.006179421208798885,-0.21144796907901764,0.42567676305770874,-0.0009372609201818705,-0.01339330431073904,1.6128712892532349,0.06511247903108597,-0.04164370521903038,0.09546269476413727,0.02859729714691639,-0.03836347162723541,0.03651420772075653,0.0,0.04784936085343361,92,0,487.9957580566406,-0.03651420772075653,900,900,900,900,0.0,0.0,0.0,1.5707963267948966
1729765575090871076,-0.002561702160164714,-0.0022974354214966297,-0.0019754536915570498,-0.13362693786621094,-0.0041802977211773396,-9.816100120544434,0.007516306359320879,-0.2156425267457962,0.42889487743377686,-0.0009526549838483334,-0.013409575447440147,1.6128532886505127,0.0650695264339447,-0.041485872119665146,0.09536826610565186,0.02855541743338108,-0.03813420981168747,0.036318715661764145,0.0,0.04764063283801079,92,0,487.995849609375,-0.036318715661764145,900,900,900,900,0.0,0.0,0.0,1.5707963267948966
1729765575099731692,0.00010146110435016453,0.0014309906400740147,0.0014866564888507128,-0.11207912862300873,0.020958824083209038,-9.804129600524902,0.010951107367873192,-0.2120140790939331,0.42889928817749023,-0.0009548991802148521,-0.013410350307822227,1.612868070602417,0.065034419298172,-0.041340820491313934,0.09528513252735138,0.028469663113355637,-0.037794213742017746,0.0361955501139164,0.0,0.047317273914813995,92,0,487.9959411621094,-0.0361955501139164,900,900,900,900,0.0,0.0,0.0,1.5707963267948966
1729765575107035679,0.0027646233793348074,-0.00043322332203388214,-0.00037755671655759215,-0.132429838180542,0.0018052058294415474,-9.79574966430664,0.010951107367873192,-0.2120140790939331,0.42889928817749023,-0.0009358683601021767,-0.01341380923986435,1.6128671169281006,0.0650058165192604,-0.04120800644159317,0.09521376341581345,0.028323626145720482,-0.03756549209356308,0.03617038205265999,0.0,0.0470467209815979,92,0,487.9960021972656,-0.03617038205265999,900,900,900,900,0.0,0.0,0.0,1.5707963267948966
1729765575114336623,0.0006340950494632125,0.0030288868583738804,-0.000910189701244235,-0.1432037651538849,-0.022136814892292023,-9.787369728088379,0.010951107367873192,-0.2120140790939331,0.42889928817749023,-0.000924537074752152,-0.013399728573858738,1.612868070602417,0.06498463451862335,-0.041088152676820755,0.09515433013439178,0.028395403176546097,-0.0374552458524704,0.03619522228837013,0.0,0.047002069652080536,92,0,487.9960632324219,-0.03619522228837013,900,900,900,900,0.0,0.0,0.0,1.5707963267948966
1729765575122672395,0.0022319913841784,0.0006320411339402199,-0.0019754539243876934,-0.15756897628307343,-0.0005889954045414925,-9.79455280303955,0.010951107367873192,-0.2120140790939331,0.42889928817749023,-0.0009079274022951722,-0.013394767418503761,1.6128560304641724,0.06497180461883545,-0.04098138213157654,0.09510651975870132,0.02846183255314827,-0.03739474341273308,0.0361606664955616,0.0,0.04699407145380974,92,0,487.9961242675781,-0.0361606664955616,900,900,900,900,0.0,0.0,0.0,1.5707963267948966
1729765575127493445,0.001965675735846162,0.0011646738275885582,-0.0022417709697037935,-0.12045885622501373,-0.035304926335811615,-9.776596069335938,0.010951107367873192,-0.2120140790939331,0.42889928817749023,-0.0008894089260138571,-0.013386168517172337,1.6128450632095337,0.06496680527925491,-0.040887780487537384,0.09507051855325699,0.0286171305924654,-0.03724857047200203,0.03629831224679947,0.0,0.04697228968143463,92,0,487.99615478515625,-0.03629831224679947,900,900,900,900,0.0,0.0,0.0,1.5707963267948966
1729765575139485894,0.00010146110435016453,0.0006320420652627945,-0.0017091395566239953,-0.12285305559635162,-0.011362902820110321,-9.83525562286377,0.010951107367873192,-0.2120140790939331,0.42889928817749023,-0.0008806015248410404,-0.01338461134582758,1.6128287315368652,0.06497073918581009,-0.04080556705594063,0.09504011273384094,0.028803877532482147,-0.03699671849608421,0.03604665398597717,0.0,0.046887315809726715,92,0,487.9961853027344,-0.03604665398597717,900,900,900,900,0.0,0.0,0.0,1.5707963267948966
1729765575148304017,-0.0025617005303502083,-0.0014984868466854095,0.0025519193150103092,-0.11327622830867767,0.01138201542198658,-9.814903259277344,0.010951107367873192,-0.2120140790939331,0.42889928817749023,-0.0008980288403108716,-0.013397542759776115,1.6128486394882202,0.06498106569051743,-0.04073363170027733,0.09501864016056061,0.028586560860276222,-0.03661935776472092,0.03585722669959068,0.0,0.046456094831228256,92,0,487.9961853027344,-0.03585722669959068,900,900,900,900,0.0,0.0,0.0,1.5707963267948966
1729765575154878611,0.0003677783824969083,0.003295202972367406,-0.0001112412428483367,-0.14679506421089172,-0.03769911825656891,-9.831663131713867,0.010951107367873192,-0.2120140790939331,0.42889928817749023,-0.0009015745017677546,-0.013378170318901539,1.6128532886505127,0.0649983212351799,-0.04067276790738106,0.09500628709793091,0.028818171471357346,-0.03657414764165878,0.03562357649207115,0.0,0.04656345397233963,92,0,487.9962158203125,-0.03562357649207115,900,900,900,900,0.0,0.0,0.0,1.5707963267948966
1729765575166125347,0.0011667273938655853,0.0016973078018054366,-0.004105983767658472,-0.15038634836673737,0.014973314478993416,-9.794551849365234,0.010951107367873192,-0.2120140790939331,0.42889928817749023,-0.0008879334200173616,-0.01336167473345995,1.61283540725708,0.06502366065979004,-0.04062359407544136,0.09500232338905334,0.02884453348815441,-0.03650752827525139,0.03547464683651924,0.0,0.04652748256921768,92,0,487.9962158203125,-0.03547464683651924,900,900,900,900,0.0,0.0,0.0,1.5707963267948966
1729765575173189220,-0.0017627531196922064,0.0008983598090708256,0.000421390519477427,-0.1515834629535675,0.04130953922867775,-9.79934310913086,0.010951107367873192,-0.2120140790939331,0.42889928817749023,-0.0008990966598503292,-0.013356579467654228,1.6128292083740234,0.0650540366768837,-0.040586523711681366,0.09500834345817566,0.028528740629553795,-0.03655463084578514,0.035494670271873474,0.0,0.04636949300765991,92,0,487.9962158203125,-0.035494670271873474,900,900,900,900,0.0,0.0,0.0,1.5707963267948966
1729765575182027017,0.0030309404246509075,-0.00016690511256456375,0.0014866578858345747,-0.1432037651538849,-0.017348406836390495,-9.819693565368652,0.010951107367873192,-0.2120140790939331,0.42889928817749023,-0.0008851213497109711,-0.013356504961848259,1.6128453016281128,0.06508918851613998,-0.04056127369403839,0.09502357989549637,0.028538217768073082,-0.03652886301279068,0.0353366956114769,0.0,0.04635501652956009,92,0,487.9961853027344,-0.0353366956114769,900,900,900,900,0.0,0.0,0.0,1.5707963267948966
1729765575187737453,-0.00016485221567563713,-0.002563753630965948,0.0001550692250020802,-0.1432037651538849,0.0185646191239357,-9.81131362915039,0.010951107367873192,-0.2120140790939331,0.42889928817749023,-0.000874337216373533,-0.013372166082262993,1.6128497123718262,0.06513042747974396,-0.040546998381614685,0.09504710882902145,0.02842766046524048,-0.036469634622335434,0.035201091319322586,0.0,0.04624031111598015,92,0,487.99615478515625,-0.035201091319322586,900,900,900,900,0.0,0.0,0.0,1.5707963267948966
1729765575195728541,-0.00016485396190546453,0.00036572525277733803,0.0001550752785988152,-0.13362693786621094,-0.037699125707149506,-9.826875686645508,0.010951107367873192,-0.2120140790939331,0.42889928817749023,-0.000878560880664736,-0.01337694562971592,1.6128530502319336,0.06517760455608368,-0.04054322838783264,0.09507842361927032,0.02860037051141262,-0.036353256553411484,0.03495413064956665,0.0,0.046255167573690414,92,0,487.9961242675781,-0.03495413064956665,900,900,900,900,0.0,0.0,0.0,1.5707963267948966
1729765575205155346,-0.0001648537872824818,0.0016973053570836782,-0.0030407183803617954,-0.15756897628307343,0.01138201542198658,-9.847227096557617,0.010951107367873192,-0.2120140790939331,0.42889928817749023,-0.0008814717293716967,-0.013362373225390911,1.612830638885498,0.065232053399086,-0.04054991528391838,0.09511207789182663,0.028653064742684364,-0.036395132541656494,0.03461549058556557,0.0,0.04632066190242767,92,0,487.99609375,-0.03461549058556557,900,900,900,900,0.0,0.0,0.0,1.5707963267948966
1729765575211564700,0.000900408485904336,-0.002031120005995035,0.004416131880134344,-0.15038634836673737,-0.0005889944732189178,-9.842436790466309,0.010951107367873192,-0.2120140790939331,0.42889928817749023,-0.000874437449965626,-0.013372080400586128,1.6128547191619873,0.06529183685779572,-0.04056756943464279,0.09515149891376495,0.028601860627532005,-0.03642592951655388,0.03421250730752945,0.0,0.046313222497701645,92,0,487.9960632324219,-0.03421250730752945,900,900,900,900,0.0,0.0,0.0,1.5707963267948966
1729765575216732333,0.00010146838030777872,-0.002297437284141779,-0.0003775595687329769,-0.1168675348162651,-0.030516522005200386,-9.814903259277344,0.010951107367873192,-0.2120140790939331,0.42889928817749023,-0.0008694243151694536,-0.013391228392720222,1.6128649711608887,0.065358005464077,-0.04059486836194992,0.09519700706005096,0.028829485177993774,-0.03621089458465576,0.03398781269788742,0.0,0.0462857224047184,92,0,487.99603271484375,-0.03398781269788742,900,900,900,900,0.0,0.0,0.0,1.5707963267948966
1729765575227274732,-0.00043117100722156465,9.940937161445618e-05,0.00015507539501413703,-0.1432037651538849,0.040112435817718506,-9.784975051879883,0.005619646515697241,-0.21630309522151947,0.42798274755477905,-0.0008760378113947809,-0.013394273817539215,1.6128634214401245,0.06542988121509552,-0.0406312420964241,0.09525087475776672,0.028612546622753143,-0.03619582951068878,0.03412191569805145,0.0,0.04613909125328064,92,0,487.9959716796875,-0.03412191569805145,900,900,900,900,0.0,0.0,0.0,1.5707963267948966
1729765575235698362,0.0038298903964459896,0.0014309894759207964,-0.0035733485128730536,-0.14799216389656067,0.01138201542198658,-9.820890426635742,0.005619646515697241,-0.21630309522151947,0.42798274755477905,-0.0008547513280063868,-0.013386565260589123,1.6128424406051636,0.06550492346286774,-0.0406770296394825,0.09531264752149582,0.028405016288161278,-0.03614233061671257,0.03392371907830238,0.0,0.04596860706806183,92,0,487.99591064453125,-0.03392371907830238,900,900,900,900,0.0,0.0,0.0,1.5707963267948966
1729765575246497395,0.0032972560729831457,0.002762568648904562,-0.00037755718221887946,-0.11567043513059616,0.012579113245010376,-9.819693565368652,0.004204879980534315,-0.21452489495277405,0.43208590149879456,-0.0008219507872126997,-0.013365966267883778,1.6128331422805786,0.06558483093976974,-0.04073217138648033,0.0953809842467308,0.02841520681977272,-0.03603769466280937,0.03374775871634483,0.0,0.04589269310235977,92,0,487.995849609375,-0.03374775871634483,900,900,900,900,0.0,0.0,0.0,1.5707963267948966
1729765575252287674,-0.0009638022165745497,0.0016973062884062529,-0.0019754543900489807,-0.10010812431573868,-0.010165803134441376,-9.804129600524902,0.004204879980534315,-0.21452489495277405,0.43208590149879456,-0.0008242856129072607,-0.01334742084145546,1.6128194332122803,0.06566932052373886,-0.04079463332891464,0.09545621275901794,0.02838815748691559,-0.035697586834430695,0.03369693085551262,0.0,0.04560926929116249,92,0,487.9957580566406,-0.03369693085551262,900,900,900,900,0.0,0.0,0.0,1.5707963267948966
1729765575259117994,0.00036777814966626465,0.000898357480764389,-0.0011765053495764732,-0.13123273849487305,-0.01375710777938366,-9.804129600524902,0.004204879980534315,-0.21452489495277405,0.43208590149879456,-0.00082454300718382,-0.013338393531739712,1.6128102540969849,0.06575927138328552,-0.040863655507564545,0.09553894400596619,0.02849753014743328,-0.035471197217702866,0.0336134172976017,0.0,0.04550071805715561,92,0,487.99566650390625,-0.0336134172976017,900,900,900,900,0.0,0.0,0.0,1.5707963267948966
1729765575266989732,0.0003677777713164687,0.0008983570151031017,0.0022856034338474274,-0.16953997313976288,0.03412692993879318,-9.793355941772461,0.004204879980534315,-0.21452489495277405,0.43208590149879456,-0.0008187746861949563,-0.013330355286598206,1.6128264665603638,0.06585408002138138,-0.04094155505299568,0.09562907367944717,0.028347531333565712,-0.03565515950322151,0.033670131117105484,0.0,0.04555077105760574,92,0,487.9955749511719,-0.033670131117105484,900,900,900,900,0.0,0.0,0.0,1.5707963267948966
1729765575275048101,0.001965675503015518,9.940983727574348e-05,0.0004213930806145072,-0.1539776772260666,-0.037699125707149506,-9.828073501586914,0.004204879980534315,-0.21452489495277405,0.43208590149879456,-0.0008107520989142358,-0.013329744338989258,1.612831950187683,0.06595315784215927,-0.0410294309258461,0.09572596848011017,0.028517168015241623,-0.035764120519161224,0.033485766500234604,0.0,0.04574168100953102,92,0,487.9954833984375,-0.033485766500234604,900,900,900,900,0.0,0.0,0.0,1.5707963267948966
1729765575280949256,0.0022319911513477564,0.00196362123824656,0.0014866555575281382,-0.1432037651538849,-0.008968701586127281,-9.807722091674805,0.004204879980534315,-0.21452489495277405,0.43208590149879456,-0.0007900448981672525,-0.013314186595380306,1.6128437519073486,0.06605874747037888,-0.04112638160586357,0.09582852572202682,0.028708303347229958,-0.03581073507666588,0.033380866050720215,0.0,0.04589744284749031,92,0,487.9953918457031,-0.033380866050720215,900,900,900,900,0.0,0.0,0.0,1.5707963267948966
1729765575290971460,-0.0017627477645874023,-0.0004332249518483877,-0.00037755927769467235,-0.132429838180542,0.019761720672249794,-9.81131362915039,0.004204879980534315,-0.21452489495277405,0.43208590149879456,-0.0007969862199388444,-0.013313528150320053,1.6128515005111694,0.06616854667663574,-0.04123113304376602,0.0959373489022255,0.028525449335575104,-0.035700250416994095,0.03331344202160835,0.0,0.0456969253718853,92,0,487.9952697753906,-0.03331344202160835,900,900,900,900,0.0,0.0,0.0,1.5707963267948966
1729765575298310380,0.0011667245998978615,0.0006320422980934381,0.0028182375244796276,-0.13482403755187988,-0.035304926335811615,-9.814903259277344,0.004204879980534315,-0.21452489495277405,0.43208590149879456,-0.0007944439421407878,-0.013308594934642315,1.6128665208816528,0.06628281623125076,-0.041343726217746735,0.09605193883180618,0.02875223383307457,-0.03570954501628876,0.033179353922605515,0.0,0.04584607481956482,92,0,487.99517822265625,-0.033179353922605515,900,900,900,900,0.0,0.0,0.0,1.5707963267948966
1729765575306517430,-0.0004311677475925535,-0.0009658564813435078,0.0004213909851387143,-0.132429838180542,0.006593609228730202,-9.812509536743164,0.004204879980534315,-0.21452489495277405,0.43208590149879456,-0.0007971571176312864,-0.013308990746736526,1.6128764152526855,0.06640277057886124,-0.04146350175142288,0.09617169201374054,0.028807908296585083,-0.03559981659054756,0.033015117049217224,0.0,0.045795660465955734,92,0,487.99505615234375,-0.033015117049217224,900,900,900,900,0.0,0.0,0.0,1.5707963267948966
1729765575314384628,0.0006340954569168389,0.0003657250199466944,-0.00011124141747131944,-0.12285305559635162,0.004199407063424587,-9.802932739257812,0.004204879980534315,-0.21452489495277405,0.43208590149879456,-0.0007912900764495134,-0.01331259310245514,1.6128818988800049,0.06652674078941345,-0.04158999025821686,0.09629742056131363,0.028772469609975815,-0.035460930317640305,0.03304455429315567,0.0,0.045665442943573,92,0,487.99493408203125,-0.03304455429315567,900,900,900,900,0.0,0.0,0.0,1.5707963267948966
1729765575319948413,-0.00015469419304281473,0.0011459765955805779,-0.0003736655635293573,-0.15043029189109802,-0.043710995465517044,-9.792452812194824,0.004204879980534315,-0.21452489495277405,0.43208590149879456,-0.0007948908023536205,-0.013303430750966072,1.6128787994384766,0.06630682200193405,-0.04118021950125694,0.0958409532904625,0.02889704704284668,-0.03525545820593834,0.03286680206656456,0.0,0.04558493569493294,92,0,487.995361328125,-0.03286680206656456,900,900,900,900,0.0,0.0,0.0,1.5707963267948966
1729765575330987906,0.00064425467280671,0.00034702778793871403,0.000691598339471966,-0.15402162075042725,0.013749852776527405,-9.797239303588867,0.004204879980534315,-0.21452489495277405,0.43208590149879456,-0.0007837763405404985,-0.01330128125846386,1.6128871440887451,0.06609983742237091,-0.04079035297036171,0.09540489315986633,0.028738699853420258,-0.03515445441007614,0.032754890620708466,0.0,0.04540648311376572,92,0,487.9958190917969,-0.032754890620708466,900,900,900,900,0.0,0.0,0.0,1.5707963267948966
1729765575339628744,-0.0006873250822536647,-0.0025824501644819975,0.0006915965932421386,-0.16958391666412354,-0.0317399837076664,-9.819986343383789,0.004204879980534315,-0.21452489495277405,0.43208590149879456,-0.0007801782339811325,-0.013328978791832924,1.6129008531570435,0.06590455025434494,-0.04042046144604683,0.094987653195858,0.028804991394281387,-0.03514430299401283,0.032409366220235825,0.0,0.045440614223480225,92,0,487.9962158203125,-0.032409366220235825,900,900,900,900,0.0,0.0,0.0,1.5707963267948966
1729765575346133940,-0.00388311967253685,-0.003115081926807761,0.00015896611148491502,-0.14683900773525238,0.002975943498313427,-9.83076000213623,0.004204879980534315,-0.21452489495277405,0.43208590149879456,-0.0008031147881411016,-0.013356709852814674,1.6129082441329956,0.0657215267419815,-0.04006994515657425,0.09458760172128677,0.028733592480421066,-0.03500702232122421,0.03200045973062515,0.0,0.04528919234871864,92,0,487.99664306640625,-0.03200045973062515,900,900,900,900,0.0,0.0,0.0,1.5707963267948966
1729765575354471253,-0.00015469599748030305,-0.0004519184585660696,0.002289497759193182,-0.14803610742092133,-0.028148680925369263,-9.828365325927734,0.004204879980534315,-0.21452489495277405,0.43208590149879456,-0.0008070623152889311,-0.013373803347349167,1.6129302978515625,0.06554999202489853,-0.03973766788840294,0.09420427680015564,0.02880723960697651,-0.034871604293584824,0.031665198504924774,0.0,0.045231468975543976,92,0,487.99700927734375,-0.031665198504924774,900,900,900,900,0.0,0.0,0.0,1.5707963267948966
1729765575361765625,0.0017095189541578293,-0.0020498160738497972,0.0006916000857017934,-0.1552187204360962,-0.01737477257847786,-9.83195686340332,0.004204879980534315,-0.21452489495277405,0.43208590149879456,-0.0007927262922748923,-0.013394134119153023,1.6129404306411743,0.0653904527425766,-0.03942294791340828,0.09383660554885864,0.028861060738563538,-0.0347328707575798,0.031202301383018494,0.0,0.04515897482633591,92,0,487.99737548828125,-0.031202301383018494,900,900,900,900,0.0,0.0,0.0,1.5707963267948966
1729765575371242289,0.00011162148439325392,-0.0001856058370321989,0.002289493102580309,-0.15402162075042725,-0.020966075360774994,-9.840336799621582,0.004204879980534315,-0.21452489495277405,0.43208590149879456,-0.0007785909110680223,-0.013409159146249294,1.612966537475586,0.06524199992418289,-0.03912593051791191,0.09348409622907639,0.028859660029411316,-0.03468044474720955,0.03077797219157219,0.0,0.04511776939034462,92,0,487.99774169921875,-0.03077797219157219,900,900,900,900,0.0,0.0,0.0,1.5707963267948966
1729765575380549136,-0.0030841706320643425,0.0016786078922450542,-0.0009062981698662043,-0.16240130364894867,-0.004206662066280842,-9.834349632263184,0.008026083000004292,-0.21682779490947723,0.4266761243343353,-0.0007960696239024401,-0.013401868753135204,1.6129682064056396,0.0651044175028801,-0.038846202194690704,0.0931464359164238,0.028840677812695503,-0.03464613854885101,0.030316514894366264,0.0,0.04507925733923912,92,0,487.9980773925781,-0.030316514894366264,900,900,900,900,0.0,0.0,0.0,1.5707963267948966
1729765575386766189,-0.0017525912262499332,-0.0009845525491982698,0.0004252843209542334,-0.1552187204360962,0.013749852776527405,-9.804422378540039,0.008725343272089958,-0.21029998362064362,0.43100717663764954,-0.0008082772837951779,-0.013412714004516602,1.6129751205444336,0.06497686356306076,-0.03858353570103645,0.09282342344522476,0.02873118594288826,-0.03460686653852463,0.03008127398788929,0.0,0.04497906565666199,92,0,487.9983825683594,-0.03008127398788929,900,900,900,900,0.0,0.0,0.0,1.5707963267948966
1729765575394485115,-0.000687325547914952,-0.00018560397438704967,-0.00037366608739830554,-0.1743723452091217,-0.010192166082561016,-9.810409545898438,0.008725343272089958,-0.21029998362064362,0.43100717663764954,-0.0008087207097560167,-0.013423595577478409,1.612979769706726,0.06485825031995773,-0.03833766281604767,0.09251587092876434,0.028630629181861877,-0.03467028960585594,0.029893454164266586,0.0,0.0449637845158577,92,0,487.9986877441406,-0.029893454164266586,900,900,900,900,0.0,0.0,0.0,1.5707963267948966
1729765575404582572,-0.003883121535181999,0.0016786090563982725,0.0009579113102518022,-0.1312766820192337,-0.04969649389386177,-9.839139938354492,0.008725343272089958,-0.21029998362064362,0.43100717663764954,-0.0008305381052196026,-0.013425986282527447,1.6129913330078125,0.06475000083446503,-0.038108158856630325,0.09222239255905151,0.028848588466644287,-0.034537140280008316,0.0294792540371418,0.0,0.04500061273574829,92,0,487.9989929199219,-0.0294792540371418,900,900,900,900,0.0,0.0,0.0,1.5707963267948966
1729765575409663031,0.0014432030729949474,-0.0023161342833191156,-0.0011726118391379714,-0.15402162075042725,0.01734115183353424,-9.833152770996094,0.008725343272089958,-0.21029998362064362,0.43100717663764954,-0.0008247276418842375,-0.013442239724099636,1.6129871606826782,0.06465347111225128,-0.03789319097995758,0.09194216877222061,0.029014982283115387,-0.03442986309528351,0.029213976114988327,0.0,0.045025378465652466,92,0,487.999267578125,-0.029213976114988327,900,900,900,900,0.0,0.0,0.0,1.5707963267948966
1729765575419867844,0.0017095226794481277,8.071237243711948e-05,-0.002770510036498308,-0.1396564096212387,0.0053701456636190414,-9.848716735839844,0.008725343272089958,-0.21029998362064362,0.43100717663764954,-0.0008153246017172933,-0.013445408083498478,1.6129788160324097,0.06456591188907623,-0.037693269550800323,0.09167493879795074,0.028849538415670395,-0.03433484211564064,0.028767110779881477,0.0,0.044846151024103165,92,0,487.9995422363281,-0.028767110779881477,900,900,900,900,0.0,0.0,0.0,1.5707963267948966
