Timestamp_ns,Gyro_X,Gyro_Y,Gyro_Z,Acc_X,Acc_Y,Acc_Z,Mag_X,Mag_Y,Mag_Z,Roll,Pitch,Yaw,Pos_X,Pos_Y,Pos_Z,Vel_X,Vel_Y,Vel_Z,Airspeed,Groundspeed,Heading,Throttle,Alt,Climb,Servo1_Raw,Servo2_Raw,Servo3_Raw,Servo4_Raw,Thrust_Vector_X,Thrust_Vector_Y,Thrust_Vector_Z,Thrust_Angle_From_Z
1729774187665476972,0.381229966878891,0.5299972891807556,0.821889340877533,-0.29437148571014404,0.23546293377876282,-8.455370903015137,0.15194447338581085,0.15187318623065948,0.4263094365596771,0.20725196599960327,0.1572140008211136,-0.24001282453536987,1.7218445539474487,-3.451956272125244,-30.24195671081543,0.6529073715209961,-0.7716452479362488,0.17394736409187317,0.0,1.0108038187026978,346,65,518.3110961914062,-0.17394736409187317,1766,1810,1510,1480,0.101768665358402,-0.13210193018285807,0.6282453492013553,0.8915004654147968
1729774187752109241,0.29254668951034546,0.3222655653953552,1.1281553506851196,-0.18782947957515717,0.06786880642175674,-8.620570182800293,0.13299015164375305,0.15766268968582153,0.432407945394516,0.2611169219017029,0.17400360107421875,-0.13064202666282654,1.7855784893035889,-3.5269508361816406,-30.222944259643555,0.5417760014533997,-0.5499213933944702,0.3328862190246582,0.0,0.7719681262969971,352,67,518.2920532226562,-0.3328862190246582,1739,1764,1528,1571,0.11599500347766262,-0.17035516469504147,0.6375141386902273,0.8795289387800335
1729774187949192315,-0.034226302057504654,0.04104819893836975,1.2975221872329712,-0.10967381298542023,-0.011290811002254486,-9.042865753173828,0.14704561233520508,0.14570210874080658,0.43360891938209534,0.30148375034332275,0.14920389652252197,0.029537487775087357,1.855966329574585,-3.592865228652954,-30.173582077026367,0.3562174439430237,-0.2052641063928604,0.5203207731246948,0.0,0.5118129849433899,359,68,518.256591796875,-0.471248596906662,1709,1701,1649,1687,0.10108262635321545,-0.19967404961774823,0.6421157034046009,0.8735414149350856
1729774187991062053,-0.17085044085979462,0.002701780991628766,1.2908637523651123,-0.10249122977256775,-0.036429937928915024,-9.003360748291016,0.15434472262859344,0.1363954246044159,0.4336712658405304,0.3042818605899811,0.1185801699757576,0.12956199049949646,1.8835482597351074,-3.6102166175842285,-30.147594451904297,0.270175963640213,-0.04978976026177406,0.5956030488014221,0.0,0.27472543716430664,7,67,518.2167358398438,-0.5956030488014221,1668,1693,1686,1636,0.07926265328401705,-0.199327771538722,0.6347329133484294,0.8831334954589914
1729774188057793496,0.09466756135225296,0.0389256551861763,1.2312089204788208,-0.043833281844854355,-0.12262122333049774,-8.578389167785645,0.1686265617609024,0.11737693101167679,0.4384068250656128,0.3104515075683594,0.08347073942422867,0.25164005160331726,1.9124547243118286,-3.6153628826141357,-30.09541893005371,0.14305081963539124,0.17062827944755554,0.7261173725128174,0.0,0.22266016900539398,13,66,518.16455078125,-0.7261173725128174,1651,1665,1673,1669,0.05502673748652704,-0.20092048927555436,0.6262611397419297,0.8940481951315684
1729774188156189173,0.1940039098262787,0.016282903030514717,1.1518471240997314,-0.09530866146087646,-0.29380664229393005,-8.651412963867188,0.1842600554227829,0.08764304220676422,0.4354485273361206,0.3353233337402344,0.04834651201963425,0.36620140075683594,1.9277452230453491,-3.5947823524475098,-30.019317626953125,0.008637556806206703,0.39735639095306396,0.8957291841506958,0.0,0.3974502682685852,20,66,518.0884399414062,-0.8957291841506958,1674,1654,1664,1671,0.031896268899106135,-0.21693540023368985,0.6225123775120979,0.8988474514361418
1729774188255516293,-0.015586878173053265,0.05143458768725395,1.064495325088501,-0.06897243857383728,-0.3871805667877197,-8.735210418701172,0.1879299432039261,0.08082161098718643,0.43624046444892883,0.34956488013267517,0.013456236571073532,0.4718928933143616,1.9273886680603027,-3.5523996353149414,-29.931333541870117,-0.11918102204799652,0.6113563776016235,1.0410397052764893,0.0,0.6228649616241455,26,67,518.0004272460938,-1.0410397052764893,1683,1655,1679,1673,0.00901540642647667,-0.2294468790608978,0.629422633956056,0.8899863494702586
1729774188357609648,-0.10347270220518112,0.08446900546550751,0.981650710105896,-0.0867859348654747,-0.423321932554245,-8.991125106811523,0.19583705067634583,0.04968433827161789,0.43630778789520264,0.33991411328315735,-0.013801796361804008,0.5705261826515198,1.9226667881011963,-3.486877918243408,-29.832582473754883,-0.24868886172771454,0.8358777761459351,1.1748476028442383,0.0,0.8720881938934326,32,68,517.9017333984375,-1.1748476028442383,1676,1685,1684,1667,-0.00938492356437582,-0.22669456895858636,0.6410315870644532,0.8749547523271166
1729774188458901433,-0.07417868822813034,0.09938080608844757,0.9203980565071106,-0.15741488337516785,-0.5178928971290588,-8.853458404541016,0.1971830576658249,0.03315214812755585,0.4354371428489685,0.330241858959198,-0.03705330938100815,0.663094699382782,1.9046424627304077,-3.404512882232666,-29.727174758911133,-0.3691583573818207,1.031233549118042,1.2869609594345093,0.0,1.0953174829483032,37,68,517.7963256835938,-1.2869609594345093,1683,1678,1679,1664,-0.025190485252374693,-0.2203534893630017,0.6428139537831296,0.8726302357252406
1729774188558258455,-0.11785539239645004,0.13639898598194122,0.8729937672615051,-0.21367862820625305,-0.6052812337875366,-9.201814651489258,0.19717203080654144,0.017511550337076187,0.4355173707008362,0.31644904613494873,-0.05443083867430687,0.7520103454589844,1.8688592910766602,-3.2927916049957275,-29.596561431884766,-0.5004718899726868,1.2260956764221191,1.4034106731414795,0.0,1.3243045806884766,42,70,517.6657104492188,-1.4034106731414795,1709,1708,1701,1688,-0.03808277582731371,-0.21751311225479775,0.664257290650632,0.8442965337468515
1729774188759463929,-0.23396989703178406,0.20750507712364197,0.8095903992652893,-0.33217957615852356,-0.7264597415924072,-9.916704177856445,0.1792067140340805,-0.02974008582532406,0.4455791413784027,0.27186065912246704,-0.06856781244277954,0.9159227609634399,1.7605210542678833,-3.0179736614227295,-29.325578689575195,-0.7613964676856995,1.561302900314331,1.4782308340072632,0.0,1.737064003944397,52,72,517.3947143554688,-1.4782308340072632,1725,1725,1727,1721,-0.0493301490938431,-0.19288312630360926,0.6919267562233196,0.8066419183398615
1729774188853136576,-0.3751162886619568,0.14571894705295563,0.7962754368782043,-0.3824578821659088,-0.7647668123245239,-9.98852825164795,0.17311935126781464,-0.04653070494532585,0.446636438369751,0.2343771606683731,-0.0714138075709343,0.9979748725891113,1.690885066986084,-2.8623275756835938,-29.194353103637695,-0.8741599917411804,1.6838639974594116,1.4726024866104126,0.0,1.8972489833831787,57,73,517.2634887695312,-1.4726024866104126,1733,1743,1706,1720,-0.05208777914873561,-0.16910105063199132,0.7082313872870288,0.7838064627705463
1729774188952941936,-0.4693932831287384,0.09299022704362869,0.7949429750442505,-0.5009707808494568,-0.7420220375061035,-10.162109375,0.15114183723926544,-0.08656376600265503,0.44751325249671936,0.18470288813114166,-0.0773068368434906,1.0781384706497192,1.6015198230743408,-2.6815290451049805,-29.050046920776367,-0.9727526903152466,1.7833114862442017,1.4459106922149658,0.0,2.0313658714294434,61,74,517.119140625,-1.4459106922149658,1741,1754,1716,1721,-0.057150094749114234,-0.13549841423618753,0.7252406817116962,0.7594124204992461
1729774189049099989,-0.4805796444416046,0.09858217090368271,0.7896161675453186,-0.5500519275665283,-0.7228684425354004,-10.37279987335205,0.14594322443008423,-0.10852950811386108,0.44557657837867737,0.1305423378944397,-0.08079773187637329,1.1578545570373535,1.5093719959259033,-2.5065081119537354,-28.91797637939453,-1.0325967073440552,1.846816062927246,1.3978763818740845,0.0,2.115888833999634,66,74,516.9871215820312,-1.3978763818740845,1748,1762,1735,1722,-0.05972528822483034,-0.09601294086872295,0.7313100608717209,0.7505555656818952
1729774189148801713,-0.4534154236316681,0.1526413857936859,0.7853333353996277,-0.5885916352272034,-0.673008382320404,-10.111800193786621,0.12610143423080444,-0.1539110541343689,0.43862298130989075,0.07739149779081345,-0.07634545862674713,1.2372844219207764,1.4074302911758423,-2.3020670413970947,-28.7874813079834,-1.0546373128890991,1.8929780721664429,1.3442561626434326,0.0,2.1669392585754395,71,72,516.8566284179688,-1.3442561626434326,1751,1760,1750,1731,-0.05491534704818054,-0.05550412097997463,0.7157538663624656,0.773093324179414
1729774189248469460,-0.31706202030181885,0.26822519302368164,0.7850658893585205,-0.6508407592773438,-0.5544953346252441,-9.816116333007812,0.11319567263126373,-0.17361891269683838,0.43356236815452576,0.03227592632174492,-0.05870506167411804,1.3165589570999146,1.311155080795288,-2.1118946075439453,-28.667142868041992,-1.0433398485183716,1.900905728340149,1.3293752670288086,0.0,2.168409585952759,75,72,516.7362670898438,-1.3293752670288086,1732,1749,1730,1691,-0.04224337086877091,-0.02319460732748328,0.7183853477128883,0.7693178837558079
1729774189355415081,0.011043130420148373,0.08686435222625732,0.7848005294799805,-0.6077452301979065,-0.44196784496307373,-9.694011688232422,0.0766037106513977,-0.20098376274108887,0.4325118958950043,0.01634356938302517,-0.04099945351481438,1.39529287815094,1.2072546482086182,-1.908090591430664,-28.534326553344727,-1.0162888765335083,1.885071873664856,1.3327603340148926,0.0,2.141573905944824,80,72,516.6034545898438,-1.3327603340148926,1704,1767,1717,1717,-0.029511337036435978,-0.011756957709423633,0.7192988634300354,0.7680038000740317
1729774189455309832,0.15138936042785645,-0.09503328800201416,0.7917249202728271,-0.662811815738678,-0.4311939775943756,-9.689223289489746,0.06397654861211777,-0.20218691229820251,0.43128299713134766,0.025147708132863045,-0.04640328139066696,1.4742776155471802,1.1126043796539307,-1.7231478691101074,-28.4090576171875,-0.9928780794143677,1.8634058237075806,1.3414134979248047,0.0,2.1114184856414795,84,72,516.4781494140625,-1.3414134979248047,1711,1755,1692,1712,-0.03339837366736742,-0.01808495315648042,0.71899755431135,0.7684374277879857
1729774189552408085,0.08401321619749069,-0.09557168185710907,0.7951779365539551,-0.7069055438041687,-0.39570310711860657,-9.665971755981445,0.05573979392647743,-0.20368492603302002,0.4335339367389679,0.03249967098236084,-0.059430260211229324,1.5533416271209717,1.010629415512085,-1.5163087844848633,-28.281959533691406,-0.9787808656692505,1.852699637413025,1.3466100692749023,0.0,2.095353841781616,89,71,516.35107421875,-1.3466100692749023,1733,1731,1713,1723,-0.04217065037135651,-0.02302997420942912,0.708372258445494,0.7836069030306393
1729774189652557354,0.00544910691678524,-0.006089322734624147,0.7866557836532593,-0.7368330955505371,-0.35380449891090393,-9.62167739868164,0.039074886590242386,-0.2027498185634613,0.43445971608161926,0.030832532793283463,-0.06620011478662491,1.6323412656784058,0.9168670773506165,-1.3283665180206299,-28.160890579223633,-0.9719479084014893,1.8478295803070068,1.3559101819992065,0.0,2.0878593921661377,93,71,516.2300415039062,-1.3559101819992065,1732,1729,1703,1700,-0.04696775826763995,-0.021839686737949525,0.7081080833929949,0.783981103733923
1729774189753259446,-0.01372527051717043,0.04770757257938385,0.786922037601471,-0.7667605876922607,-0.25085386633872986,-9.638437271118164,0.026057621464133263,-0.20441678166389465,0.4340870976448059,0.024744780734181404,-0.06560840457677841,1.7112869024276733,0.8154981732368469,-1.1280170679092407,-28.025440216064453,-0.9670701622962952,1.840535044670105,1.3691973686218262,0.0,2.0791330337524414,98,71,516.0945434570312,-1.3691973686218262,1731,1727,1715,1712,-0.04654855605070328,-0.01752920677681392,0.7082555745205047,0.7837722016923205
1729774189854344002,-0.008397934027016163,0.024271346628665924,0.7855905294418335,-0.7535924911499023,-0.182619109749794,-9.655197143554688,-0.00034065189538523555,-0.2033919245004654,0.4373367428779602,0.01870451122522354,-0.06368499994277954,1.7901679277420044,0.7221119999885559,-0.9458052515983582,-27.897111892700195,-0.9625886678695679,1.8311983346939087,1.3809162378311157,0.0,2.0687832832336426,102,72,515.9662475585938,-1.3809162378311157,1721,1739,1699,1707,-0.04582221116774383,-0.013439163551984682,0.7184147227380029,0.7692756558239389
1729774189955039964,0.00199273694306612,-0.0023635486140847206,0.7847931981086731,-0.7733114957809448,-0.1329309195280075,-9.658854484558105,-0.014299871399998665,-0.20388245582580566,0.43225526809692383,0.013455378822982311,-0.06408291310071945,1.8689851760864258,0.6172949075698853,-0.7452675104141235,-27.76338768005371,-0.9582396745681763,1.8218739032745361,1.389653205871582,0.0,2.0585062503814697,107,72,515.83251953125,-1.389653205871582,1727,1736,1712,1720,-0.0461081242173742,-0.009667695629897614,0.718457080515157,0.7692147613541033
1729774190157938625,0.0017257300205528736,-0.012217245995998383,0.7837278842926025,-0.8223927021026611,-0.08384978771209717,-9.685190200805664,-0.03149477764964104,-0.20340989530086517,0.43494394421577454,0.0071636224165558815,-0.06657624244689941,1.9696276187896729,0.4819936752319336,-0.4882446229457855,-27.58232307434082,-0.9513816833496094,1.8072313070297241,1.4051203727722168,0.0,2.0470547676086426,111,72,515.7054443359375,-1.4009339809417725,1727,1739,1698,1708,-0.04789949133578227,-0.0051463376207382455,0.7183864934273658,0.7693162367737567
1729774190191457439,0.00039449805626645684,-0.015146579593420029,0.7805321216583252,-0.769720196723938,-0.031177349388599396,-9.676811218261719,-0.046719279140233994,-0.2012377381324768,0.4338885247707367,0.0030202355701476336,-0.06811660528182983,2.0324857234954834,0.41905897855758667,-0.36921823024749756,-27.494909286499023,-0.9493204951286316,1.8010364770889282,1.4108822345733643,0.0,2.0359129905700684,116,72,515.5640258789062,-1.4108822345733643,1728,1742,1697,1708,-0.04900603832174327,-0.002169523400261001,0.7183270156246552,0.7694017333216022
1729774190265392244,-0.033160097897052765,-0.02659926936030388,0.7488403916358948,-0.7721143960952759,0.04184581711888313,-9.778565406799316,-0.05502565950155258,-0.1994265764951706,0.4335075318813324,-0.0030586249195039272,-0.07000713795423508,2.1105196475982666,0.325384259223938,-0.1925371140241623,-27.361801147460938,-0.9455149173736572,1.792671799659729,1.417800784111023,0.0,2.0267388820648193,120,72,515.430908203125,-1.417800784111023,1681,1673,1769,1781,-0.05036397682257925,0.0021968122056774592,0.7182330010899999,0.7695368594084508
1729774190364922385,-0.10186900943517685,-0.028735127300024033,0.47932398319244385,-0.7555508613586426,0.1320943385362625,-9.760622024536133,-0.0745057463645935,-0.1941203773021698,0.43328607082366943,-0.01484889630228281,-0.07252727448940277,2.174199104309082,0.22575801610946655,0.0019078640034422278,-27.22437858581543,-0.939656674861908,1.7911077737808228,1.4125856161117554,0.0,2.022627353668213,124,71,515.2935180664062,-1.4125856161117554,1633,1636,1790,1802,-0.051449231602344284,0.010514613695712492,0.7080553788132382,0.784055742318311
1729774190465146370,-0.0507362075150013,-0.008494769223034382,0.15122255682945251,-0.7782956957817078,0.15005084872245789,-9.650487899780273,-0.081344835460186,-0.19171854853630066,0.43363338708877563,-0.025599146261811256,-0.07373956590890884,2.206355333328247,0.13466255366802216,0.17972834408283234,-27.095211029052734,-0.9309449791908264,1.79298996925354,1.4168422222137451,0.0,2.0202651023864746,126,71,515.164306640625,-1.4168422222137451,1657,1663,1781,1781,-0.05230765768566769,0.018124022020763825,0.7078385612364092,0.7843627338841528
1729774190666181073,0.0754975825548172,-0.013021960854530334,-0.20590740442276,-0.7962521910667419,0.14765664935112,-9.6648530960083,-0.08648135513067245,-0.19229835271835327,0.4295712411403656,-0.0191205907613039,-0.07560183852910995,2.19425630569458,-0.058981794863939285,0.5610542893409729,-26.805500030517578,-0.9085570573806763,1.796836018562317,1.440280556678772,0.0,2.0134785175323486,125,72,514.8746337890625,-1.440280556678772,1673,1684,1747,1761,-0.05438148502890259,0.013726664548616648,0.7178121152268335,0.7701415632846136
1729774190765621765,0.06032054126262665,-0.019418083131313324,-0.26236826181411743,-0.790380597114563,0.09105246514081955,-9.685067176818848,-0.07852230221033096,-0.1911897510290146,0.43417397141456604,-0.009872863069176674,-0.07773208618164062,2.1696228981018066,-0.14834941923618317,0.7391883730888367,-26.675867080688477,-0.905616283416748,1.7973573207855225,1.446027398109436,0.0,2.0126187801361084,124,72,514.7449951171875,-1.446027398109436,1700,1708,1725,1744,-0.05591075761825753,0.00708688144213957,0.7177908910636701,0.7701720469186006
1729774190863811740,0.027829671278595924,-0.013026741333305836,-0.2485198676586151,-0.8119285702705383,0.07788436114788055,-9.693446159362793,-0.07283245027065277,-0.19111531972885132,0.4345099627971649,-0.0039212401024997234,-0.07956667244434357,2.1437058448791504,-0.2372475564479828,0.915797770023346,-26.542888641357422,-0.9069152474403381,1.7962749004364014,1.4519426822662354,0.0,2.012237310409546,122,72,514.6119995117188,-1.4519426822662354,1714,1722,1713,1728,-0.05722757627970427,0.0028143534459344694,0.7177165763223196,0.7702787754216298
1729774190964599924,-0.005193418823182583,-0.011961380951106548,-0.21230089664459229,-0.7867892980575562,0.07549014687538147,-9.703022956848145,-0.06932461261749268,-0.18960323929786682,0.4314265251159668,-0.001538977725431323,-0.08077655732631683,2.1207275390625,-0.33343032002449036,1.1056580543518066,-26.39574432373047,-0.9100323915481567,1.794490098953247,1.4594426155090332,0.0,2.012052059173584,121,72,514.46484375,-1.4594426155090332,1730,1734,1716,1725,-0.05809589529361839,0.0011044505147104154,0.7176514802737423,0.7703722546814084
1729774191065848362,-0.014248169027268887,-0.017820503562688828,-0.16436398029327393,-0.8107314705848694,0.013240888714790344,-9.785622596740723,-0.06335338950157166,-0.18797984719276428,0.43872395157814026,-0.0011860253289341927,-0.08213070780038834,2.102159023284912,-0.42228180170059204,1.2799516916275024,-26.25816535949707,-0.9123921990394592,1.7944623231887817,1.461197018623352,0.0,2.0130958557128906,120,72,514.3272705078125,-1.461197018623352,1725,1738,1707,1719,-0.0590676509737898,0.0008510595557183402,0.7175724968991434,0.7704856643358827
1729774191161512465,-0.006522960029542446,-0.01676173321902752,-0.11909319460391998,-0.792712926864624,-0.0030806283466517925,-9.757739067077637,-0.0615067183971405,-0.1941247135400772,0.43402355909347534,-0.0010744371684268117,-0.08367293328046799,2.088130474090576,-0.518541157245636,1.4710237979888916,-26.114015579223633,-0.9143639802932739,1.7979624271392822,1.4599136114120483,0.0,2.0171093940734863,119,72,514.1831665039062,-1.4599136114120483,1736,1741,1719,1723,-0.06017423965697397,0.0007708881622657972,0.7174806384935737,0.7706175441629053
1729774191360790654,0.0006675113108940423,-0.0015816204249858856,-0.06716154515743256,-0.7843332290649414,0.020861409604549408,-9.766119956970215,-0.05673035979270935,-0.19492238759994507,0.43909215927124023,-0.0004861317574977875,-0.0847158133983612,2.0762507915496826,-0.644672691822052,1.7202234268188477,-25.922807693481445,-0.9193776249885559,1.8038030862808228,1.4593111276626587,0.0,2.0219476222991943,119,72,514.048583984375,-1.4595720767974854,1732,1738,1720,1725,-0.06092245352337719,0.00034875961471856633,0.7174178231849436,0.7707077169094024
1729774191398127228,-0.0033272216096520424,-0.0005163839086890221,-0.04452468082308769,-0.8058810234069824,0.007693284656852484,-9.750557899475098,-0.057825662195682526,-0.1949392557144165,0.43250516057014465,-0.000127513034385629,-0.08480733633041382,2.071505546569824,-0.7041674852371216,1.8371641635894775,-25.83156394958496,-0.9213300347328186,1.8065584897994995,1.4600942134857178,0.0,2.027930498123169,118,72,513.9006958007812,-1.4600942134857178,1721,1734,1712,1725,-0.0609881134585719,9.14794227477053e-05,0.7174123233178251,0.7707156116900029
1729774191476396836,-0.0011966932797804475,-0.004511133302003145,-0.02721412293612957,-0.7915158271789551,0.008890382945537567,-9.781682968139648,-0.05401841923594475,-0.19380275905132294,0.4333513677120209,1.348214027530048e-05,-0.08505841344594955,2.0680246353149414,-0.793513298034668,2.0123274326324463,-25.693500518798828,-0.922498881816864,1.8101508617401123,1.4608584642410278,0.0,2.0316619873046875,118,72,513.7626342773438,-1.4608584642410278,1731,1737,1725,1729,-0.06116823735259548,-9.67204690344082e-06,0.7173969937528509,0.7707376161650952
1729774191670816765,0.00013810000382363796,-0.0029155565425753593,-0.0037792669609189034,-0.8043352365493774,-0.016696328297257423,-9.756194114685059,-0.05669842287898064,-0.19785119593143463,0.43666836619377136,0.0002756739850156009,-0.08634358644485474,2.0653553009033203,-0.982812762260437,2.379918336868286,-25.41474723815918,-0.92960524559021,1.819312572479248,1.4578660726547241,0.0,2.0430526733398438,118,73,513.48388671875,-1.4578660726547241,1718,1732,1715,1727,-0.06295252924419616,-0.00020049232123676633,0.7272805090641352,0.7564450466422958
1729774191764987948,0.0030676305759698153,0.18297308683395386,-0.0019151511369273067,-0.8725700378417969,-0.015499221161007881,-10.221866607666016,-0.05379265174269676,-0.1953241527080536,0.43653348088264465,-0.00010088990529766306,-0.07756710797548294,2.065119981765747,-1.0811593532562256,2.5705645084381104,-25.267959594726562,-0.9301564693450928,1.8193224668502808,1.4264057874679565,0.0,2.0433123111724854,118,75,513.3370971679688,-1.4264057874679565,1750,1731,1747,1730,-0.05811701170070606,7.543991050022833e-05,0.7477448811324622,0.7261371087063074
1729774191863511060,0.05872733145952225,0.39442822337150574,0.0028782635927200317,-0.7839845418930054,0.04794713854789734,-10.464879035949707,-0.06391220539808273,-0.19397911429405212,0.43556177616119385,0.0029370326083153486,-0.045640572905540466,2.0652947425842285,-1.1713502407073975,2.745431900024414,-25.135669708251953,-0.9226754903793335,1.8027973175048828,1.3682031631469727,0.0,2.025193214416504,118,75,513.2047729492188,-1.3682031631469727,1757,1743,1763,1735,-0.03421854689956462,-0.0022004774330837916,0.7492157559389342,0.7239191177178093
1729774191964393631,0.05499907210469246,0.3837754726409912,0.004210261162370443,-0.7169469594955444,-0.0238789115101099,-10.571420669555664,-0.08442193269729614,-0.1917658895254135,0.43171343207359314,0.009782142005860806,-0.003773330943658948,2.0657541751861572,-1.2684361934661865,2.93282151222229,-25.003055572509766,-0.9022501111030579,1.7513463497161865,1.289557933807373,0.0,1.9700937271118164,118,75,513.0722045898438,-1.289557933807373,1752,1766,1751,1765,-0.0028299914921507876,-0.007336437269436162,0.7499587774246969,0.722796568287327
1729774192061811260,-0.02569449506700039,0.1496836096048355,0.006607409566640854,-0.7133556604385376,-0.005922403186559677,-10.480440139770508,-0.09575203061103821,-0.19328820705413818,0.4305674135684967,0.010476582683622837,0.021117886528372765,2.066560745239258,-1.3554019927978516,3.099240779876709,-24.88665008544922,-0.8731350898742676,1.6769388914108276,1.2206618785858154,0.0,1.890631914138794,118,75,512.9557495117188,-1.2206618785858154,1738,1775,1729,1782,0.015837237692399343,-0.007855541302080098,0.7497916193004066,0.7230492335736518
1729774192264509046,-0.05978301912546158,-0.05404826998710632,0.0031449338421225548,-0.6558947563171387,-0.010710802860558033,-10.421782493591309,-0.10093361884355545,-0.192684143781662,0.430719792842865,0.005117158871144056,0.023633459582924843,2.0673255920410156,-1.4456825256347656,3.2704288959503174,-24.765974044799805,-0.8338934779167175,1.5902303457260132,1.153472900390625,0.0,1.7956087589263916,118,75,512.8350830078125,-1.153472900390625,1743,1756,1747,1752,0.017723444702992315,-0.0038367806561326366,0.7497807403648461,0.7230656749536307
1729774192278515650,-0.025694534182548523,-0.06496722996234894,0.0031450449023395777,-0.6654715538024902,-0.016696317121386528,-10.384673118591309,-0.09908141940832138,-0.1932774931192398,0.42880764603614807,0.0004991809255443513,0.016656626015901566,2.0678319931030273,-1.5250258445739746,3.420342445373535,-24.659412384033203,-0.7963650822639465,1.5173356533050537,1.0965113639831543,0.0,1.713623285293579,118,75,512.728515625,-1.0965113639831543,1752,1750,1753,1748,0.012491891861506944,-0.0003743337444321493,0.7498958677789658,0.722891666884879
1729774192373170545,-0.0046408511698246,-0.0109174195677042,0.0012735356576740742,-0.6009830236434937,-0.03079579584300518,-10.401110649108887,-0.1010076254606247,-0.19523662328720093,0.4284053444862366,-0.00090469402493909,0.012523842044174671,2.068178415298462,-1.6116608381271362,3.579005479812622,-24.553695678710938,-0.7588037252426147,1.4509493112564087,1.035438895225525,0.0,1.6373872756958008,118,74,512.622802734375,-1.035438895225525,1747,1745,1748,1745,0.009267400848173617,0.0006694209854903453,0.7399416646986865,0.7378126944757898
1729774192471165769,0.0006854931707493961,0.039682649075984955,0.0007409069803543389,-0.5722525715827942,0.005117256660014391,-10.350831985473633,-0.09751458466053009,-0.19809387624263763,0.4271104037761688,-0.000992789980955422,0.014426439069211483,2.068324089050293,-1.6876287460327148,3.71897554397583,-24.46065330505371,-0.7244001030921936,1.391903042793274,0.9803541302680969,0.0,1.5691238641738892,118,74,512.52978515625,-0.9803541302680969,1745,1747,1745,1749,0.010675194611493221,0.0007345880165762145,0.7399226314963293,0.7378409889985743
1729774192569298655,-0.009700858034193516,0.04287844896316528,-0.0016559709329158068,-0.538733720779419,-0.0164305679500103,-10.385547637939453,-0.09632138907909393,-0.19443801045417786,0.4294903874397278,-0.0015362793346866965,0.018858332186937332,2.0682477951049805,-1.765001654624939,3.8631155490875244,-24.364103317260742,-0.6880581974983215,1.3276045322418213,0.9239360094070435,0.0,1.495311975479126,118,74,512.4332275390625,-0.9239360094070435,1736,1744,1736,1745,0.013954338671538596,0.0011366441143480848,0.7398675452217088,0.7379228746099228
1729774192777727610,-0.016358772292733192,0.016246823593974113,-0.0021885428577661514,-0.5291569232940674,-0.005656673107296228,-10.244288444519043,-0.1006263867020607,-0.1985575407743454,0.4292798936367035,-0.0026970221661031246,0.022267498075962067,2.068019390106201,-1.832071304321289,3.9893991947174072,-24.279069900512695,-0.6530411243438721,1.267160415649414,0.8767154812812805,0.0,1.4255378246307373,118,74,512.3482055664062,-0.8767154812812805,1739,1744,1739,1744,0.01647658686826295,0.0019952992051034263,0.7398138555516885,0.738002677076482
1729774192968065349,-0.02167586050927639,0.010651363991200924,0.0001982151297852397,-0.45827579498291016,0.00579723808914423,-10.181557655334473,-0.09933079779148102,-0.19948862493038177,0.4267497658729553,-0.006309818476438522,0.024312550202012062,2.0675649642944336,-1.9669702053070068,4.236856937408447,-24.122663497924805,-0.5818454027175903,1.1482683420181274,0.797100841999054,0.0,1.2872700691223145,118,73,512.1917724609375,-0.797100841999054,1732,1736,1734,1737,0.017746413209131846,0.00460477564607986,0.7297697313944036,0.7528112378986735
1729774193063587470,0.01108101662248373,-0.001865518745034933,-0.004329153802245855,-0.4295453429222107,-0.00617379043251276,-10.134869575500488,-0.10141646862030029,-0.20014669001102448,0.42389243841171265,-0.006779258139431477,0.024848677217960358,2.0671041011810303,-2.0292766094207764,4.3550028800964355,-24.044477462768555,-0.542975664138794,1.089755892753601,0.7641497850418091,0.0,1.2175346612930298,118,73,512.1135864257812,-0.7641497850418091,1725,1740,1733,1734,0.018137667697056447,0.004947292772252495,0.7297578703273688,0.7528285862654879
1729774193261535238,0.0401151180267334,-0.024766484275460243,-0.0006112572154961526,-0.39162030816078186,-0.01658841222524643,-10.067405700683594,-0.10270527750253677,-0.19785445928573608,0.42710551619529724,-0.0009606446255929768,0.0216200053691864,2.0667834281921387,-2.1043832302093506,4.499403476715088,-23.947824478149414,-0.4966834485530853,1.0156992673873901,0.7199892401695251,0.0,1.1550254821777344,118,73,512.04345703125,-0.7320481538772583,1733,1730,1730,1733,0.015781374418602764,0.0007011065796615106,0.7298290598976063,0.7527244573555802
1729774193300425918,0.0401151180267334,-0.024233849719166756,-0.0022091905120760202,-0.37126970291137695,-0.01060289703309536,-10.094938278198242,-0.1009010449051857,-0.19554531574249268,0.4261775016784668,0.0020686022471636534,0.019862016662955284,2.0665283203125,-2.138645887374878,4.563513278961182,-23.90646743774414,-0.4795386493206024,0.9816552400588989,0.7003282308578491,0.0,1.0925220251083374,118,73,511.9755859375,-0.7003282308578491,1731,1730,1728,1732,0.014498318856327408,-0.0015097807104797283,0.7298544507725815,0.7526873153486917
1729774193372599068,0.010820346884429455,-0.009586453437805176,-0.0016765426844358444,-0.35211601853370667,-0.034544918686151505,-10.155991554260254,-0.10474123060703278,-0.1953890174627304,0.42546021938323975,0.004709032364189625,0.017972877249121666,2.0663301944732666,-2.1871283054351807,4.655531883239746,-23.845111846923828,-0.45650824904441833,0.9334653615951538,0.6707859039306641,0.0,1.0391137599945068,118,73,511.91424560546875,-0.6707859039306641,1735,1731,1731,1733,0.013119494045973026,-0.003437025724939012,0.7298740067505787,0.7526587076790192
1729774193571495305,-0.022469164803624153,0.0050609540194272995,0.0007203230052255094,-0.31021755933761597,-0.012997105717658997,-10.029098510742188,-0.10159622132778168,-0.19483447074890137,0.4257216155529022,0.0024068793281912804,0.01824202761054039,2.066344738006592,-2.278634786605835,4.832263946533203,-23.72290802001953,-0.4120391309261322,0.8383117318153381,0.6054765582084656,0.0,0.9340999722480774,118,72,511.7920227050781,-0.6054765582084656,1726,1729,1726,1728,0.013133531440326286,-0.0017326631126207259,0.7198781203998661,0.7671696174492141
1729774193662070658,-0.020599406212568283,0.008793555200099945,0.00045483201392926276,-0.28667888045310974,-0.02995537966489792,-10.102713584899902,-0.10061997175216675,-0.19866423308849335,0.4245489537715912,0.0005651710089296103,0.01902453787624836,2.066310405731201,-2.3242075443267822,4.915480136871338,-23.666820526123047,-0.38960930705070496,0.7915631532669067,0.5760300755500793,0.0,0.8822514414787292,118,72,511.7359313964844,-0.5760300755500793,1728,1729,1729,1729,0.013696841012788882,-0.00040684946752876265,0.7198695930651475,0.7671819028178346
1729774193862880374,0.024408016353845596,-0.017305439338088036,-0.0008767416002228856,-0.2854817807674408,-0.028758279979228973,-10.119473457336426,-0.09862244874238968,-0.1967950463294983,0.4244605004787445,0.000883137749042362,0.018487999215722084,2.066189765930176,-2.3790478706359863,5.017334938049316,-23.5965518951416,-0.35846325755119324,0.7344686388969421,0.5338618159294128,0.0,0.8320269584655762,118,72,511.681884765625,-0.5438699126243591,1727,1730,1727,1730,0.013310601130937344,-0.0006357504294875404,0.7198766725758825,0.7671717033466252
1729774193902053089,0.0217448640614748,-0.01916964165866375,-0.0011430666781961918,-0.29027023911476135,-0.05509449169039726,-10.06679916381836,-0.09837368875741959,-0.19669848680496216,0.4275388717651367,0.002714963862672448,0.017115280032157898,2.066120147705078,-2.4028966426849365,5.062763690948486,-23.56481170654297,-0.34533753991127014,0.7083871960639954,0.5134488940238953,0.0,0.7880802154541016,118,72,511.6339416503906,-0.5134488940238953,1725,1721,1722,1724,0.01232239999671552,-0.0019544852782984244,0.7198918935823753,0.7671497740340079
1729774193971336952,0.008695302531123161,-0.002125420607626438,0.02548856846988201,-0.2543572187423706,-0.00122495973482728,-10.294248580932617,-0.09702596068382263,-0.1968604326248169,0.427487850189209,0.003889648476615548,0.015885790809988976,2.066288948059082,-2.4366729259490967,5.128004550933838,-23.51842498779297,-0.3271568715572357,0.6717016696929932,0.4903366267681122,0.0,0.747137725353241,118,73,511.5875549316406,-0.4903366267681122,1818,1813,1705,1645,0.011596139546492176,-0.002839077957919627,0.7299023696248473,0.7526172151950143
1729774194172893480,0.19219738245010376,0.31532609462738037,0.5791457891464233,-0.1944461166858673,-0.08050302416086197,-11.532687187194824,-0.11434295773506165,-0.18383163213729858,0.4310895502567291,0.030663780868053436,0.04902219772338867,2.1205995082855225,-2.5085513591766357,5.248439311981201,-23.448034286499023,-0.3005003333091736,0.5583796501159668,0.259416788816452,0.0,0.634104311466217,121,77,511.51715087890625,-0.259416788816452,1863,1858,1697,1660,0.03773197524669134,-0.023579050615479807,0.7687134228150668,0.693969168924004
1729774194368682177,-0.022719571366906166,0.13130101561546326,0.9125736951828003,-0.14416787028312683,-0.02423926256597042,-12.09292984008789,-0.14675083756446838,-0.16383053362369537,0.42921683192253113,0.048429686576128006,0.07552766054868698,2.224480628967285,-2.551943778991699,5.313216209411621,-23.43327522277832,-0.27979522943496704,0.4154936671257019,-0.008320103399455547,0.0,0.5352307558059692,126,79,511.5027160644531,-0.06065487489104271,1838,1852,1741,1765,0.059610140472686556,-0.03813546866874278,0.7868241971255344,0.6651500328601236
1729774194406413990,-0.08503788709640503,0.009596813470125198,1.0097789764404297,-0.1537446677684784,-0.035013165324926376,-12.242568016052246,-0.15909534692764282,-0.1558486968278885,0.4277896285057068,0.049227431416511536,0.07637692242860794,2.3024942874908447,-2.5706241130828857,5.336688995361328,-23.439308166503906,-0.26479485630989075,0.3399123251438141,-0.15415151417255402,0.0,0.43087896704673767,131,80,511.5084228515625,0.15415151417255402,1838,1845,1784,1789,0.06104214996632991,-0.039251277284967814,0.7967014454354823,0.648978724328133
1729774194480942090,-0.07678253948688507,-0.0452636182308197,1.0438674688339233,-0.1298026740550995,-0.0409986674785614,-12.407768249511719,-0.17049835622310638,-0.14572517573833466,0.4231603741645813,0.04782469943165779,0.06913473457098007,2.4014039039611816,-2.5994906425476074,5.3661909103393555,-23.472557067871094,-0.23389534652233124,0.22135081887245178,-0.41148215532302856,0.0,0.32202982902526855,137,82,511.54168701171875,0.41148215532302856,1846,1847,1821,1809,0.056645333392153975,-0.039107659796693554,0.8171058053582276,0.6144237122925396
1729774194579728353,0.00018168485257774591,-0.044730596244335175,1.0217632055282593,-0.0687505379319191,0.002096974290907383,-12.817176818847656,-0.18927828967571259,-0.12353062629699707,0.4217365086078644,0.0500752292573452,0.059952426701784134,2.5048720836639404,-2.622572898864746,5.383017063140869,-23.527381896972656,-0.20398567616939545,0.12204747647047043,-0.6766520738601685,0.0,0.23770935833454132,143,83,511.59649658203125,0.6766520738601685,1832,1832,1832,1824,0.04973071053730212,-0.04147043239574067,0.8274702772102241,0.5962089313740495
1729774194680303517,0.08087566494941711,-0.05405211076140404,0.9799513816833496,-0.07114473730325699,-0.06134937331080437,-12.824359893798828,-0.19331574440002441,-0.11022517085075378,0.4245651364326477,0.060053449124097824,0.0499141700565815,2.6051249504089355,-2.643815279006958,5.390581130981445,-23.61624526977539,-0.1755969077348709,0.019267233088612556,-0.9984240531921387,0.0,0.1766507923603058,149,82,511.68536376953125,0.9984240531921387,1840,1836,1828,1821,0.040912626054848564,-0.049152940612932836,0.8175023825398906,0.6137354569803322
1729774194779930188,0.07634828984737396,-0.029818594455718994,0.9349439144134521,-0.03403462469577789,-0.0409986786544323,-11.673945426940918,-0.20505210757255554,-0.07619073241949081,0.42719218134880066,0.07274984568357468,0.0390004962682724,2.7009060382843018,-2.6607964038848877,5.388157367706299,-23.725536346435547,-0.15903520584106445,-0.0712130144238472,-1.2384973764419556,0.0,0.1742512285709381,154,79,511.7946472167969,1.2384973764419556,1789,1780,1783,1782,0.030802582012768167,-0.05737803091749867,0.7873112234112869,0.6643605163761139
1729774194878140996,0.0419994555413723,0.003740364219993353,0.8973919749259949,-0.05840418487787247,-0.09048549830913544,-10.933367729187012,-0.20820803940296173,-0.06417358666658401,0.4301016628742218,0.08203227072954178,0.030798178166151047,2.7923693656921387,-2.679140329360962,5.373434543609619,-23.865442276000977,-0.15163926780223846,-0.16745059192180634,-1.3915904760360718,0.0,0.22590743005275726,159,77,511.9345703125,1.3915904760360718,1786,1780,1773,1763,0.023710848373369255,-0.06306410897237878,0.7670467481379052,0.6965709388219024
1729774194977695907,0.026820046827197075,0.0199859831482172,0.8691626191139221,-0.02488534152507782,-0.09407681226730347,-10.59817886352539,-0.213348388671875,-0.04697581008076668,0.4260319471359253,0.08810227364301682,0.02495102398097515,2.88065242767334,-2.696272373199463,5.349179744720459,-24.01716423034668,-0.1465134173631668,-0.2607128322124481,-1.4867122173309326,0.0,0.29906079173088074,165,75,512.0863037109375,1.4867122173309326,1761,1756,1754,1753,0.018711326377451903,-0.06597071657193372,0.7468585882348693,0.72747091369992
1729774195076403588,0.03321138769388199,0.01732231117784977,0.8438624739646912,-0.00812596082687378,-0.13118693232536316,-10.326437950134277,-0.2169332206249237,-0.018120529130101204,0.4273681640625,0.09279292076826096,0.019338330253958702,2.9662773609161377,-2.711064577102661,5.318655014038086,-24.164064407348633,-0.14020217955112457,-0.3448832333087921,-1.5456359386444092,0.0,0.3722916841506958,169,75,512.2332153320312,1.5456359386444092,1767,1769,1747,1744,0.014502843710493261,-0.06948186495558019,0.7466337374955698,0.727808979636565
1729774195177962758,0.03800515830516815,-0.0002532266080379486,0.8225573301315308,-0.03326509892940521,-0.1647057831287384,-10.120536804199219,-0.22112460434436798,-0.005605412181466818,0.4274544417858124,0.09736011177301407,0.012482229620218277,3.049644708633423,-2.7248916625976562,5.2803874015808105,-24.31521987915039,-0.13459530472755432,-0.42703762650489807,-1.5845264196395874,0.0,0.447746604681015,174,74,512.3843383789062,1.5845264196395874,1747,1743,1737,1735,0.00923661006130369,-0.07192711161059581,0.7364381682462774,0.7430062182715761
1729774195278252242,0.008715731091797352,0.001609806902706623,0.8156426548957825,-0.011717580258846283,-0.1715717762708664,-10.268695831298828,-0.21912728250026703,0.021359775215387344,0.4290371835231781,0.10089781880378723,0.004360764287412167,3.131256341934204,-2.7420036792755127,5.22982120513916,-24.486236572265625,-0.13026663661003113,-0.5167582035064697,-1.610589861869812,0.0,0.5329244136810303,179,77,512.5553588867188,1.610589861869812,1794,1796,1773,1766,0.0033577778592180658,-0.07755882905390925,0.766076597582536,0.6980816758414345
1729774195480674338,-0.004334399476647377,0.0008116564713418484,0.7980656623840332,-0.07396683096885681,-0.20269639790058136,-11.797393798828125,-0.21458040177822113,0.04784559831023216,0.4251738488674164,0.10032191872596741,-0.011251826770603657,-2.998309373855591,-2.7716989517211914,5.106245517730713,-24.8370418548584,-0.11965072900056839,-0.7025390267372131,-1.8817124366760254,0.0,0.7126551866531372,188,83,512.9061889648438,1.8817124366760254,1806,1802,1794,1792,-0.009338819161993972,-0.0831223271407512,0.8257744638745893,0.5992223422938862
1729774195679643982,-0.001937336870469153,0.0010778289288282394,0.7938047051429749,-0.10030306875705719,-0.23501811921596527,-12.266657829284668,-0.20662125945091248,0.07034016400575638,0.42651188373565674,0.09825731068849564,-0.0213240385055542,-2.896662950515747,-2.789144515991211,5.0010223388671875,-25.116653442382812,-0.11192861199378967,-0.8322536945343018,-2.1930487155914307,0.0,0.8026992082595825,192,84,513.0986328125,2.095054864883423,1845,1841,1831,1830,-0.01791083488624489,-0.08238466325177152,0.8357583198835473,0.5812839598808215
1729774195718983647,-0.0022033024579286575,-0.003184075001627207,0.7943373322486877,-0.07516393065452576,-0.2900847792625427,-11.908724784851074,-0.20389673113822937,0.07973920553922653,0.42506012320518494,0.09668098390102386,-0.02759518101811409,-2.8334412574768066,-2.7965447902679443,4.945675849914551,-25.264802932739258,-0.10776922851800919,-0.891514241695404,-2.3514153957366943,0.0,0.8980043530464172,197,82,513.3339233398438,2.3514153957366943,1836,1843,1817,1811,-0.02262517669028591,-0.07912482305167907,0.8158598922344288,0.6165816274721023
1729774195792709898,0.0047211903147399426,-0.004515091422945261,0.790875256061554,-0.10389435291290283,-0.31761807203292847,-10.931888580322266,-0.19186560809612274,0.10402467846870422,0.42560136318206787,0.09421233832836151,-0.035588338971138,-2.754714250564575,-2.807016372680664,4.855922698974609,-25.502029418945312,-0.10304892808198929,-0.9736647009849548,-2.513845920562744,0.0,0.9791026711463928,201,79,513.5711669921875,2.513845920562744,1807,1816,1785,1778,-0.028108853459921364,-0.07427063530095351,0.7859985782997075,0.6664866283471964
1729774195893203314,0.028689229860901833,-0.008509200066328049,0.7914077639579773,-0.16973493993282318,-0.2709311544895172,-10.400376319885254,-0.1848830282688141,0.11572252213954926,0.42773115634918213,0.09272672981023788,-0.04380509629845619,-2.6761209964752197,-2.8176183700561523,4.750405311584473,-25.771087646484375,-0.09908988326787949,-1.0528606176376343,-2.6066229343414307,0.0,1.0575132369995117,206,77,513.8402099609375,2.6066229343414307,1789,1805,1764,1770,-0.033719137868944725,-0.07122891261844572,0.7659565664896208,0.6982684014290857
1729774195988039470,0.0193687304854393,-0.04686048626899719,0.793005645275116,-0.20923921465873718,-0.3008587062358856,-10.123847007751465,-0.17617486417293549,0.12703253328800201,0.42638885974884033,0.09200502932071686,-0.05377534031867981,-2.5972795486450195,-2.8269155025482178,4.6458330154418945,-26.02545928955078,-0.09578976035118103,-1.1233772039413452,-2.652190685272217,0.0,1.1274538040161133,210,76,514.0946044921875,2.652190685272217,1799,1772,1759,1755,-0.040849563956705415,-0.06972427853461453,0.7556916289779677,0.7140868108809991
1729774196184439084,-0.2802374064922333,0.16806349158287048,0.787153422832489,-0.28620535135269165,-0.34119346737861633,-9.568635940551758,-0.15086109936237335,0.1489926427602768,0.4307003319263458,0.05697692558169365,-0.05566222965717316,-2.444979667663574,-2.8442318439483643,4.397977828979492,-26.57151222229004,-0.09623214602470398,-1.2462064027786255,-2.668978691101074,0.0,1.249916434288025,219,74,514.640625,2.668978691101074,1785,1754,1751,1737,-0.04116878349690052,-0.04207485172409108,0.7376549587156458,0.7412058103641812
1729774196283233448,-0.29887768626213074,0.23784096539020538,0.7852892875671387,-0.2850082516670227,-0.335207998752594,-9.407028198242188,-0.15086109936237335,0.1489926427602768,0.4307003319263458,0.022296106442809105,-0.03645896539092064,-2.3655242919921875,-2.853785753250122,4.263740539550781,-26.851512908935547,-0.1042347103357315,-1.2606478929519653,-2.637138605117798,0.0,1.2649497985839844,224,72,514.920654296875,2.637138605117798,1747,1737,1736,1722,-0.026244639871463006,-0.01604119928120431,0.7193426852367638,0.7679407178946307
1729774196484176444,-0.026696426793932915,0.04476667940616608,0.7836916446685791,-0.33073386549949646,-0.28608712553977966,-9.800939559936523,-0.14545942842960358,0.15291106700897217,0.432704895734787,-0.00043159082997590303,-0.01758688874542713,-2.264746904373169,-2.868293523788452,4.089053630828857,-27.211658477783203,-0.11831387877464294,-1.2338902950286865,-2.5977916717529297,0.0,1.249324917793274,228,75,515.1743774414062,2.5971548557281494,1739,1774,1740,1747,-0.013189486619454693,0.00032364305480081485,0.7498839461529285,0.7229096872888537
1729774196519312672,0.06997469812631607,-0.05350420996546745,0.7828927636146545,-0.3834063410758972,-0.22383788228034973,-9.96015453338623,-0.1340133100748062,0.16172872483730316,0.4308576285839081,0.0005400017835199833,-0.018199168145656586,-2.202030658721924,-2.8766067028045654,4.005860805511475,-27.383201599121094,-0.12570029497146606,-1.217416763305664,-2.608600616455078,0.0,1.2238889932632446,233,76,515.4523315429688,2.608600616455078,1776,1790,1751,1754,-0.013830604289431453,-0.00041033337294944414,0.7598740329893583,0.7076770081609616
1729774196693208065,0.0518641360104084,-0.052441198378801346,0.7844904661178589,-0.40016570687294006,-0.18912196159362793,-9.98409652709961,-0.1121242418885231,0.18119053542613983,0.43296897411346436,0.01075020246207714,-0.032476287335157394,-2.051109790802002,-2.9039907455444336,3.7559635639190674,-27.91993522644043,-0.13856752216815948,-1.1856645345687866,-2.654752492904663,0.0,1.1937341690063477,242,76,515.9890747070312,2.654752492904663,1766,1758,1751,1747,-0.02467763988507978,-0.008165688398863873,0.7595553538898103,0.708167090289903
1729774196786738705,0.01671108603477478,-0.015156249515712261,0.787686288356781,-0.3702382743358612,-0.1963045746088028,-9.979308128356934,-0.08691775798797607,0.1953405886888504,0.43390101194381714,0.011161772534251213,-0.036228910088539124,-1.9724771976470947,-2.91758131980896,3.6392314434051514,-28.179344177246094,-0.14219340682029724,-1.1828359365463257,-2.6781086921691895,0.0,1.191352128982544,246,76,516.2484741210938,2.6781086921691895,1784,1784,1756,1753,-0.027527948850571478,-0.008477204632087577,0.7594539808531562,0.7083229284889342
1729774196882810891,0.004193536005914211,0.00668546836823225,0.7839674949645996,-0.4457951486110687,-0.12796244025230408,-9.99566650390625,-0.07772054523229599,0.20100516080856323,0.4306395947933197,0.009262452833354473,-0.03712477535009384,-1.8938021659851074,-2.930213689804077,3.5110549926757812,-28.465730667114258,-0.14091260731220245,-1.1814903020858765,-2.7017834186553955,0.0,1.189863681793213,251,76,516.5348510742188,2.7017834186553955,1764,1762,1750,1748,-0.02820834853624647,-0.007034513057093335,0.759443746895652,0.7083386593167883
1729774196980679298,-0.00805617030709982,0.0008263024501502514,0.7839674949645996,-0.423050194978714,-0.08726103603839874,-9.907082557678223,-0.06369707733392715,0.20662592351436615,0.4291984438896179,0.0061192805878818035,-0.037243738770484924,-1.8150513172149658,-2.9417693614959717,3.3937695026397705,-28.731204986572266,-0.14017480611801147,-1.1805057525634766,-2.7186343669891357,0.0,1.1887989044189453,256,76,516.8003540039062,2.7186343669891357,1779,1784,1751,1756,-0.028298698237820552,-0.004647399163937601,0.75945874500137,0.7083156053195863
1729774197182138293,-0.0021972765680402517,-0.011157851666212082,0.7837011814117432,-0.4086848795413971,-0.03817988559603691,-9.971726417541504,-0.047167688608169556,0.21312932670116425,0.4268632233142853,0.001717990031465888,-0.03832926228642464,-1.7142293453216553,-2.9587385654449463,3.229522943496704,-29.10761070251465,-0.14132024347782135,-1.179359793663025,-2.740551471710205,0.0,1.1878299713134766,260,76,517.0880737304688,2.7353715896606445,1776,1785,1751,1755,-0.029123107165458278,-0.0013047127967245544,0.7594406773103133,0.7083433775836163
1729774197218077893,0.0036610302049666643,-0.016484109684824944,0.7821031808853149,-0.3907283544540405,-0.03578568994998932,-9.92144775390625,-0.02553430199623108,0.2108420878648758,0.42837491631507874,-0.0005810268921777606,-0.039427727460861206,-1.651458501815796,-2.9669852256774902,3.1528475284576416,-29.28495979309082,-0.14171123504638672,-1.179052710533142,-2.7487199306488037,0.0,1.1875383853912354,265,76,517.3540649414062,2.7487199306488037,1747,1741,1761,1765,-0.029957309794521426,0.000441237229206126,0.7594092209735029,0.7083917276951556
1729774197292326062,-0.059721626341342926,-0.02047799341380596,0.6209843158721924,-0.3956451117992401,0.02716783620417118,-9.92119026184082,-0.0015352293848991394,0.21656493842601776,0.4301683008670807,-0.005342855118215084,-0.04089836776256561,-1.5782455205917358,-2.979491710662842,3.0265591144561768,-29.579978942871094,-0.143638014793396,-1.1815781593322754,-2.769399642944336,0.0,1.190276861190796,269,75,517.6491088867188,2.769399642944336,1690,1680,1834,1845,-0.03066522531980953,0.00400377143148905,0.7493621379349305,0.7236980780839918
1729774197493607655,-0.007524178829044104,-0.0013020308688282967,0.03748571500182152,-0.3752944767475128,0.047518547624349594,-9.838591575622559,0.01856590434908867,0.2104865461587906,0.42715615034103394,-0.01862914301455021,-0.04195807874202728,-1.5189101696014404,-3.006249189376831,2.7854244709014893,-30.146345138549805,-0.15980882942676544,-1.1896486282348633,-2.786078929901123,0.0,1.2003344297409058,272,75,518.2154541015625,2.786078929901123,1690,1690,1829,1833,-0.03145932657248071,0.013958753056331052,0.7492098931439163,0.723927969500054
1729774197594764879,0.05665815249085426,0.00029584718868136406,-0.15825659036636353,-0.384871244430542,0.047518547624349594,-9.771552085876465,0.01217000000178814,0.21661502122879028,0.43101489543914795,-0.014957067556679249,-0.042125117033720016,-1.527762770652771,-3.021062135696411,2.670076370239258,-30.416950225830078,-0.17083701491355896,-1.1929187774658203,-2.787785768508911,0.0,1.2050894498825073,272,75,518.486083984375,2.787785768508911,1712,1717,1806,1808,-0.031584494592596914,0.011207431115473383,0.7492508346269106,0.723866153259182
1729774197693558635,0.0755656436085701,-0.0036976649425923824,-0.24668654799461365,-0.39237314462661743,0.036723989993333817,-9.774027824401855,0.012234828434884548,0.21657611429691315,0.43106552958488464,-0.0066999634727835655,-0.04240763187408447,-1.5495256185531616,-3.03840970993042,2.5442895889282227,-30.716684341430664,-0.17798234522342682,-1.1968333721160889,-2.7907371520996094,0.0,1.2099950313568115,271,75,518.7858276367188,2.7907371520996094,1729,1729,1768,1769,-0.03179619148873171,0.005020417247283467,0.7493088799803957,0.7237785050191018
1729774197791931905,0.05426068231463432,-0.0044967844150960445,-0.2541433274745941,-0.40075287222862244,0.007993584498763084,-9.752479553222656,0.011288126930594444,0.21422812342643738,0.4307153522968292,0.000802027469035238,-0.04289981722831726,-1.575265884399414,-3.0549073219299316,2.4283437728881836,-30.991483688354492,-0.1776578575372696,-1.1991162300109863,-2.7910091876983643,0.0,1.212205410003662,269,74,519.0606079101562,2.7910091876983643,1755,1756,1762,1770,-0.03173612816010426,-0.0005929542099555768,0.7393189207471362,0.73873800154802
1729774197887598865,0.01697617396712303,-0.012220075353980064,-0.22325065732002258,-0.41751232743263245,0.03792108967900276,-9.781209945678711,-0.00019076955504715443,0.21527013182640076,0.427788108587265,0.004810248035937548,-0.04371059313416481,-1.599082350730896,-3.0725767612457275,2.302932024002075,-31.2868709564209,-0.17144277691841125,-1.2014161348342896,-2.7883048057556152,0.0,1.2135869264602661,268,75,519.3560180664062,2.7883048057556152,1753,1751,1742,1744,-0.03277250657828503,-0.0036042262249912716,0.7492749644595736,0.7238297183687371
1729774197986374991,-0.006992208771407604,-0.006094713229686022,-0.17424845695495605,-0.3971615731716156,0.0032051699236035347,-9.77163314819336,-0.0032270727679133415,0.2171270251274109,0.4304356575012207,0.005611386615782976,-0.044709619134664536,-1.618488073348999,-3.088409900665283,2.187185525894165,-31.55791473388672,-0.165259450674057,-1.20492422580719,-2.7879745960235596,0.0,1.2162044048309326,267,75,519.6270141601562,2.7879745960235596,1768,1769,1752,1757,-0.033521043930625063,-0.004204312267834993,0.7492387225525358,0.723884441344679
1729774198184444981,-0.012319912202656269,-0.000234345905482769,-0.11459929496049881,-0.37756627798080444,0.018247682601213455,-9.773914337158203,-0.008661835454404354,0.21396774053573608,0.42921948432922363,0.004793072585016489,-0.045270372182130814,-1.6370794773101807,-3.1063385009765625,2.0239439010620117,-31.948829650878906,-0.15543939173221588,-1.2109724283218384,-2.790677785873413,0.0,1.2199081182479858,266,75,519.9260864257812,2.7905163764953613,1765,1771,1750,1757,-0.03394118314997875,-0.0035911077097376563,0.7492229975326415,0.7239081840713596
1729774198222553029,-0.01737985387444496,-0.005294409114867449,-0.09142978489398956,-0.413479208946228,0.009867986664175987,-9.755958557128906,-0.011614729650318623,0.21599918603897095,0.43078887462615967,0.0035578685346990824,-0.04566435515880585,-1.6456146240234375,-3.1146481037139893,1.946902871131897,-32.1318244934082,-0.1524394452571869,-1.2136328220367432,-2.790975332260132,0.0,1.2231690883636475,265,75,520.200927734375,2.790975332260132,1754,1753,1741,1741,-0.03423636500559507,-0.0026656141409097597,0.7492134314148775,0.7239226273480931
1729774198295585390,-0.013385158963501453,-0.007424910087138414,-0.05947183817625046,-0.35003286600112915,0.0038824714720249176,-9.734411239624023,-0.009856284596025944,0.21536824107170105,0.42955151200294495,0.0023402771912515163,-0.04595737159252167,-1.6527905464172363,-3.1283562183380127,1.82129967212677,-32.427616119384766,-0.14915655553340912,-1.2188407182693481,-2.7900829315185547,0.0,1.227933406829834,265,75,520.4967651367188,2.7900829315185547,1763,1766,1756,1757,-0.034455896769946516,-0.0017533530494191459,0.7492060577243506,0.7239337602564335
1729774198492585300,-0.00406581861898303,3.3404212445020676e-05,-0.023263370618224144,-0.3871782124042511,-0.026707544922828674,-9.7509765625,-0.006516388151794672,0.20740768313407898,0.42986759543418884,0.001525558647699654,-0.0460088886320591,-1.6607623100280762,-3.152932643890381,1.5805211067199707,-32.998268127441406,-0.14676477015018463,-1.2282660007476807,-2.78867769241333,0.0,1.2370033264160156,264,75,521.0673828125,2.78867769241333,1762,1766,1756,1760,-0.03449449370799965,-0.0011429577573850687,0.7492054615066508,0.7239346604287157
1729774198592645042,-0.003266889601945877,-0.011151885613799095,-0.016339141875505447,-0.42668259143829346,-0.02311624400317669,-9.725837707519531,-0.01373421959578991,0.21954527497291565,0.42897164821624756,0.001280564465560019,-0.046452708542346954,-1.66279935836792,-3.1640450954437256,1.4652464389801025,-33.27213668823242,-0.14530809223651886,-1.2313785552978516,-2.7869367599487305,0.0,1.2399224042892456,264,75,521.3412475585938,2.7869367599487305,1759,1765,1755,1761,-0.034827002987434116,-0.0009593870465386248,0.7491903359223264,0.7239574968003636
1729774198790199318,-0.0011363502126187086,-0.00023291818797588348,-0.013675983995199203,-0.3692217469215393,-0.008751031942665577,-9.828787803649902,-0.014645984396338463,0.20826075971126556,0.4283566474914551,0.0008960812701843679,-0.04729302227497101,-1.664664626121521,-3.1808526515960693,1.3002129793167114,-33.65693283081055,-0.1449471265077591,-1.240156888961792,-2.783418893814087,0.0,1.2458205223083496,264,76,521.6357421875,2.7836432456970215,1760,1762,1758,1762,-0.03592930000848888,-0.0006802602194027535,0.7591499342336361,0.7087901617238576
1729774198827240610,0.002059441525489092,0.005626028403639793,-0.008882293477654457,-0.4075288772583008,-0.03508725389838219,-9.744991302490234,-0.014645984396338463,0.20826075971126556,0.4283566474914551,0.0007104455144144595,-0.04735139384865761,-1.6654614210128784,-3.1891915798187256,1.2218410968780518,-33.8372688293457,-0.14568662643432617,-1.2435994148254395,-2.7836532592773438,0.0,1.2521039247512817,264,75,521.9063720703125,2.7836532592773438,1749,1748,1747,1747,-0.035500275731614996,-0.0005322368544143257,0.749159160090104,0.7240045637255745
1729774198898081540,0.0028578112833201885,0.005094465333968401,-0.0035560906399041414,-0.40127596259117126,0.009735862724483013,-9.740080833435059,-0.01947442628443241,0.2131200134754181,0.4324382245540619,0.0008343567606061697,-0.046722766011953354,-1.6661150455474854,-3.201084613800049,1.0960450172424316,-34.13547134399414,-0.14558981359004974,-1.2483948469161987,-2.7843515872955322,0.0,1.2568556070327759,264,75,522.20458984375,2.7843515872955322,1757,1761,1756,1763,-0.03502932632725338,-0.0006250845915960578,0.7491812568172753,0.7239712040084776
1729774199097894424,-0.003533770330250263,-0.0026287040673196316,-0.004088724497705698,-0.4096556603908539,-0.02258586511015892,-9.761627197265625,-0.017270540818572044,0.21112529933452606,0.42524200677871704,0.0005524674779735506,-0.046654120087623596,-1.6671900749206543,-3.2255687713623047,0.8512149453163147,-34.703704833984375,-0.14450010657310486,-1.2558715343475342,-2.77840518951416,0.0,1.2641571760177612,264,75,522.7728271484375,2.77840518951416,1747,1747,1745,1744,-0.0349778979869944,-0.00041389973001114216,0.7491838061113073,0.7239673552250544
1729774199193451178,0.0033904449082911015,-0.0004981742240488529,0.0007049724808894098,-0.4108527600765228,-0.010614855214953423,-9.73050308227539,-0.006598616950213909,0.21638154983520508,0.42749544978141785,0.0005623213364742696,-0.04675990343093872,-1.667471170425415,-3.238234519958496,0.7322192788124084,-34.97373580932617,-0.1454467475414276,-1.2613393068313599,-2.7759835720062256,0.0,1.2696974277496338,264,75,523.0428466796875,2.7759835720062256,1758,1762,1757,1761,-0.03505714897100577,-0.0004212799982170317,0.7491800977262996,0.7239729539345169
1729774199289952451,0.002856957260519266,0.002167756436392665,-0.0014369473792612553,-0.40650349855422974,-0.01882905513048172,-9.768589973449707,-0.010571856983006,0.21109025180339813,0.43021029233932495,0.0007003344944678247,-0.04643094539642334,-1.6675184965133667,-3.251187801361084,0.6079018115997314,-35.27119827270508,-0.1453438550233841,-1.2628177404403687,-2.777357816696167,0.0,1.2711544036865234,264,75,523.34033203125,2.777357816696167,1749,1747,1749,1746,-0.03481069822721389,-0.0005246847531694696,0.7491915242411941,0.7239557027163949
1729774199387473888,0.00019380333833396435,-0.00449014687910676,-0.0009043141617439687,-0.40410929918289185,-0.01404065452516079,-9.762604713439941,-0.010571856983006,0.21109025180339813,0.43021029233932495,0.0008360319770872593,-0.04645416513085365,-1.6674447059631348,-3.2635345458984375,0.492154598236084,-35.544471740722656,-0.14555872976779938,-1.2650021314620972,-2.7777786254882812,0.0,1.2733489274978638,264,74,523.6135864257812,2.7777786254882812,1756,1763,1755,1763,-0.03436371966032022,-0.0006179961762575586,0.7392014291462328,0.7389124715888418
1729774199489195955,0.004987482912838459,-0.006620676722377539,0.0028241174295544624,-0.3945324420928955,-0.027208760380744934,-9.715917587280273,-0.012497838586568832,0.21876618266105652,0.4341268837451935,0.0010913392761722207,-0.047080520540475845,-1.6672306060791016,-3.2774336338043213,0.3648354709148407,-35.83830261230469,-0.145396888256073,-1.2697654962539673,-2.774259090423584,0.0,1.2780628204345703,264,75,523.9074096679688,2.774259090423584,1746,1746,1747,1744,-0.035297347160466924,-0.000817597323954395,0.7491684916078956,0.7239904759650415
1729774199683442621,0.002590102143585682,0.002969087567180395,0.0036235754378139973,-0.3875976800918579,-0.043940767645835876,-9.744478225708008,-0.01809992827475071,0.2170804738998413,0.42820730805397034,0.0012304718839004636,-0.04715816676616669,-1.6669083833694458,-3.2961606979370117,0.19744981825351715,-36.22196578979492,-0.14599640667438507,-1.2757521867752075,-2.7723031044006348,0.0,1.282650351524353,264,74,524.1773071289062,2.772268772125244,1747,1748,1746,1747,-0.03488411029850085,-0.0009095366703447433,0.7391767526050366,0.738949110959789
1729774199719891976,0.0025900984182953835,0.005365928169339895,0.0022919951006770134,-0.3840063810348511,-0.01521034725010395,-9.73370361328125,-0.01823538728058338,0.21106551587581635,0.4338212013244629,0.001435757614672184,-0.04672261327505112,-1.66671621799469,-3.304967164993286,0.12114651501178741,-36.404991149902344,-0.14658890664577484,-1.2764467000961304,-2.7731709480285645,0.0,1.2848364114761353,264,75,524.47412109375,2.7731709480285645,1756,1763,1755,1761,-0.03502921189958876,-0.0010756427067767913,0.7491807507580939,0.723971968026705
1729774199790461273,0.003921673633158207,-0.006085663102567196,0.004955158103257418,-0.40675121545791626,-0.03556106239557266,-9.736098289489746,-0.01823538728058338,0.21106551587581635,0.4338212013244629,0.0017214285908266902,-0.04662928357720375,-1.6664656400680542,-3.3184993267059326,0.004860685672610998,-36.67770004272461,-0.14760853350162506,-1.2785776853561401,-2.7712626457214355,0.0,1.2870699167251587,264,75,524.746826171875,2.7712626457214355,1747,1746,1746,1745,-0.034959290861961714,-0.0012896674785486146,0.7491836789067308,0.7239675472719003
1729774199890852562,0.004454306326806545,-0.003156190738081932,0.004688835237175226,-0.4031599164009094,0.0027461645659059286,-9.761238098144531,-0.006597559899091721,0.21266651153564453,0.42736896872520447,0.0023426569532603025,-0.0470215305685997,-1.666184663772583,-3.3335037231445312,-0.12330090999603271,-36.970760345458984,-0.14797110855579376,-1.2828303575515747,-2.7673985958099365,0.0,1.291336178779602,264,75,525.0398559570312,2.7673985958099365,1759,1762,1758,1760,-0.035253153644510295,-0.001755049090681273,0.7491689628920875,0.7239897644629524
1729774199990186753,0.0015248395502567291,0.0037680305540561676,0.007618316914886236,-0.4055541157722473,-0.014013253152370453,-9.768420219421387,-0.01082456111907959,0.21563997864723206,0.42664438486099243,0.0027363330591470003,-0.04692037031054497,-1.6654413938522339,-3.3474299907684326,-0.24329720437526703,-37.239707946777344,-0.1463788002729416,-1.2870209217071533,-2.766295909881592,0.0,1.295318365097046,264,75,525.308837890625,2.766295909881592,1748,1747,1747,1747,-0.035177367130687844,-0.0020499886148854208,0.7491717762892778,0.7239855170393666
1729774200088789873,-0.0030032265931367874,0.0056350864470005035,0.008409017696976662,-0.4041694402694702,-0.0021729590371251106,-9.753705978393555,-0.012985887937247753,0.21599721908569336,0.4305860698223114,0.0028731506317853928,-0.04633913189172745,-1.6646676063537598,-3.3634464740753174,-0.370821475982666,-37.5361213684082,-0.14663134515285492,-1.2899360656738281,-2.7676889896392822,0.0,1.2982432842254639,264,75,525.605224609375,2.7676889896392822,1756,1764,1757,1760,-0.03474191216419062,-0.0021525468413134846,0.749191808605294,0.7239552733924749
1729774200188160620,0.004187304060906172,0.0021729764994233847,0.009740592911839485,-0.4197317957878113,-0.006961358245462179,-9.753705978393555,-0.01229791808873415,0.21714621782302856,0.43128862977027893,0.0030289979185909033,-0.04596461355686188,-1.6635832786560059,-3.378124475479126,-0.4902222454547882,-37.80781173706055,-0.14560875296592712,-1.2936127185821533,-2.767153263092041,0.0,1.3017817735671997,264,74,525.876953125,2.767153263092041,1747,1746,1747,1745,-0.034001838207355146,-0.0022390876368721868,0.7392150306136065,0.7388922756971869
1729774200287843945,0.00418730778619647,0.004303509369492531,0.012403755448758602,-0.425717294216156,-0.024917874485254288,-9.760889053344727,-0.015039386227726936,0.21989023685455322,0.42767056822776794,0.0034392287489026785,-0.045563481748104095,-1.6624778509140015,-3.3937995433807373,-0.6214046478271484,-38.10025405883789,-0.14422687888145447,-1.298160195350647,-2.765526056289673,0.0,1.3061474561691284,264,75,526.1693725585938,2.765526056289673,1758,1761,1758,1762,-0.034160788639030326,-0.002576739465716826,0.7492171920967147,0.7239169493603722
1729774200488621353,0.00045788456918671727,0.010166987776756287,0.007871381938457489,-0.38754212856292725,-0.008312894031405449,-9.812437057495117,-0.013798975385725498,0.21643312275409698,0.4319170415401459,0.003718062536790967,-0.044060513377189636,-1.6606978178024292,-3.4237165451049805,-0.8717039823532104,-38.667396545410156,-0.14153149724006653,-1.3010176420211792,-2.770352840423584,0.0,1.308693289756775,264,75,526.7365112304688,2.770352840423584,1748,1748,1748,1747,-0.033034694077517614,-0.002785834178627041,0.749266940492595,0.7238418343408503
1729774200684721138,0.003121020272374153,0.014960682019591331,0.013730334118008614,-0.4342290759086609,-0.05021143704652786,-9.525134086608887,-0.015425356104969978,0.2174196094274521,0.4329786002635956,0.004027048125863075,-0.04374436289072037,-1.6592849493026733,-3.4439263343811035,-1.0409016609191895,-39.053951263427734,-0.14027515053749084,-1.3010975122451782,-2.762861728668213,0.0,1.3091084957122803,264,73,527.0099487304688,2.7696008682250977,1740,1728,1739,1727,-0.03192320142719452,-0.0029369249392912585,0.7292957450050971,0.7535042553381385
1729774200722131306,0.0017894790507853031,0.08713235706090927,0.01479564979672432,-0.4007101356983185,-0.016692616045475006,-9.081008911132812,-0.014974850229918957,0.21367251873016357,0.4264638125896454,0.004351898096501827,-0.03988555446267128,-1.6582528352737427,-3.4532430171966553,-1.121496558189392,-39.23325729370117,-0.13851819932460785,-1.2986441850662231,-2.7310187816619873,0.0,1.3060107231140137,264,71,527.3023681640625,2.7310187816619873,1714,1711,1715,1710,-0.028311235751643526,-0.0030873804753973034,0.7094286024766797,0.7821091976670085
1729774200793704472,0.0039200009778141975,0.13640083372592926,0.01665976457297802,-0.4007101356983185,-0.0059187160804867744,-8.612942695617676,-0.01489515695720911,0.21379315853118896,0.42773309350013733,0.004585414659231901,-0.028256602585315704,-1.656795620918274,-3.466958522796631,-1.242843508720398,-39.49536895751953,-0.13603082299232483,-1.2894893884658813,-2.6426241397857666,0.0,1.2966445684432983,265,69,527.5645141601562,2.6426241397857666,1686,1690,1686,1692,-0.019494461363571955,-0.00316266201624732,0.6897173069780945,0.8096977641893224
1729774200893431577,0.0009907763451337814,0.11723045259714127,0.012922595255076885,-0.37295714020729065,-0.0344909206032753,-8.414795875549316,-0.022176330909132957,0.21871812641620636,0.43122613430023193,0.004644534084945917,-0.015055953525006771,-1.6554960012435913,-3.480449676513672,-1.369030475616455,-39.77052307128906,-0.132075697183609,-1.2649472951889038,-2.508457899093628,0.0,1.271823763847351,265,69,527.8396606445312,2.508457899093628,1690,1701,1690,1701,-0.010388215452088704,-0.003204353778174102,0.6899143548996391,0.8094255928680356
1729774201097203135,0.002055997494608164,0.04798826202750206,0.011058404110372066,-0.3849281370639801,0.0050133997574448586,-8.894830703735352,-0.026676172390580177,0.21472926437854767,0.4269906282424927,0.0046960399486124516,-0.00031233951449394226,-1.6534502506256104,-3.5053629875183105,-1.607163429260254,-40.25661849975586,-0.12218619138002396,-1.1962642669677734,-2.289193630218506,0.0,1.2024880647659302,265,70,528.3257446289062,2.289193630218506,1695,1702,1695,1702,-0.00021863765659085798,-0.003287215721606283,0.6999922473930512,0.7954096859474966
1729774201192771353,0.002056027064099908,0.026150338351726532,0.009194180369377136,-0.37774553894996643,0.012196030467748642,-8.998978614807129,-0.028101038187742233,0.21226756274700165,0.43460121750831604,0.0047448608092963696,0.0029859512578696012,-1.652441143989563,-3.5167622566223145,-1.7179211378097534,-40.47486877441406,-0.11693447828292847,-1.1580678224563599,-2.2115602493286133,0.0,1.1639565229415894,265,70,528.5440063476562,2.2115602493286133,1706,1710,1705,1711,0.0020901627745567313,-0.0033213752970875517,0.6999889996890749,0.7954142335841677
1729774201292639862,-0.002471762243658304,0.015505170449614525,0.013182911090552807,-0.34565848112106323,0.0002513200743123889,-9.058466911315918,-0.03238259628415108,0.21681608259677887,0.429669588804245,0.0046411496587097645,0.005127285607159138,-1.65155029296875,-3.5282061100006104,-1.8270217180252075,-40.70860290527344,-0.11073846369981766,-1.1113771200180054,-2.1357414722442627,0.0,1.1168805360794067,265,70,528.7777099609375,2.1357414722442627,1705,1708,1704,1708,0.0035890841993562314,-0.003248750393992981,0.6999832598680396,0.7954222707882437
1729774201392889990,-0.0022054563742130995,0.0029883193783462048,0.010519741103053093,-0.34326428174972534,0.0038426187820732594,-9.022554397583008,-0.03951821103692055,0.21505773067474365,0.42711782455444336,0.0045218029990792274,0.005643779411911964,-1.6507208347320557,-3.5383546352386475,-1.9253604412078857,-40.915496826171875,-0.10562644898891449,-1.0703999996185303,-2.065382480621338,0.0,1.075598955154419,265,70,528.984619140625,2.065382480621338,1709,1713,1709,1712,0.00395062461554922,-0.0031652009027898047,0.699981695523813,0.7954244612556288
1729774201494799765,0.0015229671262204647,0.0003251652233302593,0.009987110272049904,-0.32051944732666016,-0.038055915385484695,-9.057269096374512,-0.03951821103692055,0.21505773067474365,0.42711782455444336,0.004584625829011202,0.005549086723476648,-1.649835467338562,-3.54886531829834,-2.0296084880828857,-41.13011932373047,-0.09961290657520294,-1.0291332006454468,-1.9891635179519653,0.0,1.0339429378509521,265,70,529.19921875,1.9891635179519653,1708,1711,1708,1712,0.0038843407716898956,-0.0032091774282211457,0.6999818662486933,0.7954242221989569
1729774201593213058,-0.0022054589353501797,0.008580958470702171,0.009188158437609673,-0.3193223476409912,-0.003339978866279125,-9.089592933654785,-0.03271484375,0.2204967439174652,0.426603764295578,0.004380288068205118,0.006276401225477457,-1.6490308046340942,-3.5581419467926025,-2.1234664916992188,-41.320037841796875,-0.09466435015201569,-0.9916330575942993,-1.9202959537506104,0.0,0.9961413145065308,265,70,529.38916015625,1.9202959537506104,1709,1710,1708,1710,0.004393452012336976,-0.0030661314492153044,0.6999794971407031,0.795427539525735
1729774201690794363,-0.001669402001425624,0.01711064763367176,0.005176915787160397,-0.31334394216537476,-0.0338168628513813,-9.11681079864502,-0.021985836327075958,0.20927514135837555,0.43159565329551697,0.004400713834911585,0.007970854640007019,-1.6482632160186768,-3.5636234283447266,-2.2164270877838135,-41.52314758300781,-0.08710085600614548,-0.9479518532752991,-1.8504793643951416,0.0,0.9519450068473816,265,70,529.59228515625,1.8504793643951416,1708,1711,1708,1710,0.005579539165339756,-0.0030803918832705583,0.6999709850619151,0.7954394584151124
1729774201789640673,-0.010990475304424763,0.006724322214722633,0.007307444699108601,-0.3001757562160492,-0.003889339743182063,-9.084488868713379,-0.021985836327075958,0.20927514135837555,0.43159565329551697,0.0036119951400905848,0.009057113900780678,-1.6473965644836426,-3.568389415740967,-2.2995262145996094,-41.702781677246094,-0.08050591498613358,-0.9093526005744934,-1.7833858728408813,0.0,0.9129093289375305,265,70,529.7719116210938,1.7833858728408813,1704,1709,1705,1711,0.00633989305142588,-0.002528287397364586,0.6999667231511315,0.7954454260288026
1729774201889758919,-0.009658888913691044,0.007523269392549992,0.003312710439786315,-0.25947433710098267,-0.012269052676856518,-9.113219261169434,-0.031297408044338226,0.21338389813899994,0.42093321681022644,0.0023805201053619385,0.009855256415903568,-1.646816611289978,-3.573885917663574,-2.3874027729034424,-41.8883056640625,-0.07454149425029755,-0.8688996434211731,-1.711891770362854,0.0,0.8720911741256714,265,70,529.9573974609375,1.711891770362854,1700,1700,1702,1703,0.006898567818059915,-0.0016662815769344383,0.6999640228381498,0.795449207043599
1729774202093848720,-0.004595122300088406,0.014986539259552956,-0.006801468785852194,-0.23157921433448792,-0.038031693547964096,-9.158740997314453,-0.0342496857047081,0.20846371352672577,0.43230679631233215,0.001191940507851541,0.011503342539072037,-1.6468303203582764,-3.5803771018981934,-2.496769666671753,-42.118324279785156,-0.06890001147985458,-0.8159872889518738,-1.6214485168457031,0.0,0.8346903920173645,265,70,530.120849609375,1.646804690361023,1706,1706,1707,1706,0.008052162188346002,-0.0008343029545296881,0.6999531888795655,0.7954643767582117
1729774202131363197,-0.001665637013502419,0.019513919949531555,-0.004404627252370119,-0.22918501496315002,-0.017680972814559937,-9.17549991607666,-0.03604961559176445,0.21072308719158173,0.4245738983154297,0.0006848504417575896,0.013190418481826782,-1.647281527519226,-3.5817058086395264,-2.5437021255493164,-42.22291564941406,-0.06647742539644241,-0.7908881902694702,-1.5802898406982422,0.0,0.7936771512031555,265,70,530.2920532226562,1.5802898406982422,1701,1711,1701,1711,0.009233025193903219,-0.00047935356805457085,0.6999389412412524,0.7954843259656917
1729774202202243615,-0.0006003692978993058,-0.01777033880352974,-0.0012088316725566983,-0.18968066573143005,-0.027257775887846947,-9.206624984741211,-0.03604961559176445,0.21072308719158173,0.4245738983154297,0.0005254799034446478,0.013938752934336662,-1.6476532220840454,-3.58442759513855,-2.612703561782837,-42.374000549316406,-0.06293004006147385,-0.7537607550621033,-1.5208823680877686,0.0,0.7563831806182861,265,70,530.443115234375,1.5208823680877686,1696,1706,1697,1707,0.009756811106966207,-0.0003678001828559832,0.6999319033734984,0.7954941800783913
1729774202302732169,-0.0006003844318911433,-0.06197880581021309,-0.002274109749123454,-0.19207489490509033,-0.027257775887846947,-9.213807106018066,-0.030443452298641205,0.21184656023979187,0.43142738938331604,0.000423141464125365,0.00965589564293623,-1.6479376554489136,-3.5881195068359375,-2.6853764057159424,-42.53042221069336,-0.06028947979211807,-0.7186905741691589,-1.4593746662139893,0.0,0.7212148904800415,265,70,530.5995483398438,1.4593746662139893,1703,1708,1704,1707,0.006759021917857045,-0.00029618520790281196,0.6999673048771895,0.7954446114862659
1729774202401950628,0.003926973324269056,-0.063310407102108,-0.0014751364942640066,-0.2100313901901245,-0.008104164153337479,-9.225778579711914,-0.031271155923604965,0.20934779942035675,0.43011730909347534,0.000654850504361093,0.002399823861196637,-1.6482338905334473,-3.5923805236816406,-2.756051540374756,-42.679752349853516,-0.05841146036982536,-0.6896802186965942,-1.3984545469284058,0.0,0.6921493411064148,265,70,530.7489013671875,1.3984545469284058,1706,1697,1706,1697,0.00167987509039318,-0.0004583940003064312,0.6999978342070932,0.7954018628963095
1729774202601379269,-0.028028808534145355,0.012331427074968815,-0.0046752458438277245,-0.15949736535549164,-0.02576705813407898,-9.258400917053223,-0.025025004521012306,0.21128499507904053,0.42766839265823364,-7.602696132380515e-05,-0.000718568975571543,-1.6486700773239136,-3.597773551940918,-2.871967077255249,-42.94355010986328,-0.05414170026779175,-0.6469296216964722,-1.291230320930481,0.0,0.6491912603378296,265,70,531.0126953125,1.291230320930481,1710,1700,1704,1705,-0.0005029982396136105,5.3218859135842876e-05,0.6999998172574933,0.7953990860748041
1729774202697053936,-0.020838269963860512,0.02964199334383011,-0.0020120826084166765,-0.17865099012851715,-0.010204747319221497,-9.257204055786133,-0.032011181116104126,0.2122192680835724,0.4298127591609955,-0.002613826422020793,0.0018593486165627837,-1.6487815380096436,-3.6016788482666016,-2.9343461990356445,-43.07634735107422,-0.05410135164856911,-0.6256093382835388,-1.2352598905563354,0.0,0.6279442310333252,265,70,531.1454467773438,1.2352598905563354,1702,1700,1702,1699,0.001301543281649336,0.001829673249237398,0.6999963987627986,0.7954038729124118
1729774202797687258,0.004994384478777647,0.01526091992855072,-0.0017457683570683002,-0.1738625466823578,-0.019781559705734253,-9.295511245727539,-0.031466446816921234,0.21204428374767303,0.42862918972969055,-0.003431156510487199,0.0047075385227799416,-1.6487987041473389,-3.6059465408325195,-2.9911932945251465,-43.193233489990234,-0.05684391409158707,-0.6067448258399963,-1.1864030361175537,0.0,0.6094017624855042,265,70,531.2623291015625,1.1864030361175537,1703,1706,1704,1703,0.0032952647948984886,0.002401778231607117,0.6999881232501431,0.7954154608248813
1729774202896810345,0.019109509885311127,-0.019347403198480606,-0.001747789909131825,-0.14765338599681854,-0.002947581931948662,-9.308938026428223,-0.031466446816921234,0.21204428374767303,0.42862918972969055,-0.0023321195039898157,0.004362107254564762,-1.6489940881729126,-3.6108627319335938,-3.0429437160491943,-43.31645202636719,-0.0594107024371624,-0.5809978246688843,-1.1345330476760864,0.0,0.5840274691581726,265,70,531.3855590820312,1.1345330476760864,1698,1702,1700,1701,0.003053465394627579,0.0016324666416121273,0.699991436663155,0.7954108211837124
1729774203096446993,0.014582126401364803,-0.016151614487171173,0.0003827633336186409,-0.12849976122379303,-0.0029475754126906395,-9.281405448913574,-0.026329221203923225,0.20985963940620422,0.43048766255378723,-0.0004558457585517317,0.0015235113678500056,-1.64911687374115,-3.618116855621338,-3.109537363052368,-43.4683723449707,-0.061113882809877396,-0.5522111058235168,-1.066412091255188,0.0,0.5629310011863708,265,70,531.493896484375,1.0861945152282715,1702,1699,1701,1699,0.0010664575449381214,0.00031909164961515846,0.6999991148914575,0.7954000695832549
1729774203134935719,0.007391594350337982,-0.004700020886957645,-0.0006825111340731382,-0.16082148253917694,-0.02329828217625618,-9.336471557617188,-0.029895659536123276,0.21313603222370148,0.42759886384010315,0.00035432257573120296,0.0006167630781419575,-1.649094820022583,-3.621755361557007,-3.141108989715576,-43.53627395629883,-0.061009060591459274,-0.5402132868766785,-1.0361518859863281,0.0,0.5436474084854126,265,70,531.6054077148438,1.0361518859863281,1706,1702,1704,1702,0.0004317341273276632,-0.0002480257506480347,0.6999998229205993,0.7953990781448715
1729774203304760528,0.003663160838186741,0.02033369615674019,-0.0025467213708907366,-0.15483596920967102,0.005432132165879011,-9.387947082519531,-0.031969163566827774,0.214569091796875,0.4297983646392822,0.0010519011411815882,0.0030588549561798573,-1.6490625143051147,-3.6334807872772217,-3.2344439029693604,-43.73503494262695,-0.0594378262758255,-0.5047778487205505,-0.9457846879959106,0.0,0.5082651972770691,265,70,531.8041381835938,0.9457846879959106,1703,1699,1703,1699,0.002141195130273464,-0.0007363272182652228,0.699996337923022,0.7954039581047146
1729774203399266106,0.002597910352051258,0.015273687429726124,-0.001215134747326374,-0.12490849196910858,-0.04604320228099823,-9.364005088806152,-0.03228684142231941,0.2126830369234085,0.4289393126964569,0.0014214313123375177,0.004898276180028915,-1.6490916013717651,-3.639087200164795,-3.2763967514038086,-43.82381057739258,-0.057610951364040375,-0.4854491949081421,-0.9059443473815918,0.0,0.4888557493686676,265,70,531.8929443359375,0.9059443473815918,1703,1705,1703,1705,0.0034287796148010485,-0.0009949896470077514,0.6999908952736138,0.7954115792715128
1729774203500183608,0.003929486498236656,0.007816837169229984,-0.00014986994210630655,-0.124908447265625,-0.013721470721065998,-9.431042671203613,-0.03228684142231941,0.2126830369234085,0.4289393126964569,0.0016199019737541676,0.005780013743788004,-1.6490857601165771,-3.645101547241211,-3.321732997894287,-43.9155158996582,-0.056395940482616425,-0.46585750579833984,-0.86468905210495,0.0,0.46925869584083557,265,70,531.984619140625,0.86468905210495,1702,1701,1702,1701,0.004045987092130796,-0.0011339119442607723,0.6999873886236473,0.7954164894904457
1729774203596608439,0.005793695338070393,0.011811582371592522,-0.002813034923747182,-0.12012004852294922,-0.037663500756025314,-9.453787803649902,-0.03728184103965759,0.21624378859996796,0.42698410153388977,0.0021467693150043488,0.006635068915784359,-1.6491272449493408,-3.6505825519561768,-3.3630964756011963,-43.99635696411133,-0.05503692850470543,-0.44767552614212036,-0.8286356925964355,0.0,0.4510459303855896,265,70,532.0654907226562,0.8286356925964355,1705,1703,1705,1703,0.004644514162417439,-0.00150270428800684,0.6999829786273506,0.7954226645948551
1729774203800938883,0.005794330965727568,-0.02891627885401249,0.0011782264336943626,-0.10012166202068329,-0.03879797086119652,-9.444811820983887,-0.027625039219856262,0.2100040465593338,0.4305981695652008,0.002751733409240842,0.007077942136675119,-1.64915931224823,-3.657365083694458,-3.4124157428741455,-44.10456848144531,-0.05095384642481804,-0.4187050461769104,-0.7770680785179138,0.0,0.42820239067077637,265,70,532.1488647460938,0.7890574932098389,1702,1706,1703,1706,0.00495451812746296,-0.0019261627068276061,0.6999798158856807,0.7954270932059528
1729774203839081204,-0.002727767452597618,-0.0377047061920166,-0.00015334112686105072,-0.10969844460487366,-0.018447251990437508,-9.460373878479004,-0.02925414964556694,0.21568766236305237,0.4320060610771179,0.003034717170521617,0.0043405806645751,-1.6490651369094849,-3.660461187362671,-3.435542106628418,-44.15311050415039,-0.04945376515388489,-0.40743717551231384,-0.7546162009239197,0.0,0.4104274809360504,265,70,532.2222290039062,0.7546162009239197,1705,1700,1705,1700,0.0030383969242909043,-0.0021242787471939173,0.699990182491108,0.7954125773536992
1729774204008433556,-0.00033092836383730173,0.00703640840947628,0.0009119247552007437,-0.08934777975082397,-0.03041825443506241,-9.481922149658203,-0.023738745599985123,0.21289655566215515,0.43048030138015747,0.0022253738716244698,0.0017633902607485652,-1.64895761013031,-3.669894218444824,-3.5079691410064697,-44.29597091674805,-0.046368278563022614,-0.37970754504203796,-0.6889886856079102,0.0,0.3825282156467438,265,70,532.3651123046875,0.6889886856079102,1707,1702,1706,1702,0.0012343725428008918,-0.0015577580024271776,0.699997178361764,0.7954027812603188
1729774204108781989,0.005530809983611107,0.019567087292671204,0.00038758566370233893,-0.07114244252443314,-0.04696444049477577,-9.518413543701172,-0.031728606671094894,0.21278628706932068,0.4278325140476227,0.002708485582843423,0.00353683577850461,-1.648846983909607,-3.672799587249756,-3.536879062652588,-44.363338470458984,-0.043780144304037094,-0.36213305592536926,-0.6560958027839661,0.0,0.3647698760032654,265,70,532.4324340820312,0.6560958027839661,1703,1702,1704,1701,0.0024757798832717192,-0.001895925731596334,0.6999930542366758,0.7954085561518344
1729774204205883514,0.0028676518704742193,-0.0017382032237946987,-0.0009440048597753048,-0.07712795585393906,-0.009854314848780632,-9.51242733001709,-0.031728606671094894,0.21278628706932068,0.4278325140476227,0.0029507107101380825,0.004578174091875553,-1.6489545106887817,-3.6755645275115967,-3.5640792846679688,-44.422943115234375,-0.04106903076171875,-0.34660089015960693,-0.6276074647903442,0.0,0.34902554750442505,265,70,532.4920654296875,0.6276074647903442,1704,1706,1705,1704,0.0032047106693348848,-0.002065472853810268,0.6999896168168611,0.7954133694451003
1729774204302668998,0.0007371226092800498,-0.00040662428364157677,-0.0009440075955353677,-0.05677725374698639,-0.014642720110714436,-9.574677467346191,-0.029585573822259903,0.21382616460323334,0.4215758740901947,0.002983941463753581,0.004476022440940142,-1.6490083932876587,-3.678849220275879,-3.5942180156707764,-44.484737396240234,-0.04002221301198006,-0.33205369114875793,-0.599908709526062,0.0,0.3344569206237793,265,70,532.5538330078125,0.599908709526062,1703,1703,1705,1703,0.0031332052464556333,-0.0020887350010984533,0.6999898715059946,0.7954130128139992
1729774204403310855,0.0002044878201559186,0.0027891702484339476,-0.0009440053254365921,-0.09508445113897324,-0.032599225640296936,-9.549537658691406,-0.028089800849556923,0.2178490310907364,0.4242981970310211,0.003094561630859971,0.004581095650792122,-1.6490298509597778,-3.6819984912872314,-3.6223292350769043,-44.53899002075195,-0.03806193172931671,-0.3189394772052765,-0.574530839920044,0.0,0.3212025761604309,265,70,532.6080932617188,0.574530839920044,1706,1704,1706,1703,0.003206755739130614,-0.002166166953984543,0.6999893030885236,0.7954138087462881
1729774204499584163,-0.0003281465033069253,0.009447073563933372,-0.001210321206599474,-0.06395981460809708,-0.042176034301519394,-9.585451126098633,-0.02973843738436699,0.21404455602169037,0.4291168749332428,0.0032730610109865665,0.005450055003166199,-1.6490528583526611,-3.683570623397827,-3.647907018661499,-44.59374237060547,-0.03481794893741608,-0.30429503321647644,-0.5476083755493164,0.0,0.3062805235385895,265,70,532.662841796875,0.5476083755493164,1705,1702,1704,1702,0.003815019615832993,-0.002291104590009861,0.6999858544749946,0.7954186376888043
1729774204598535547,-0.0027249911800026894,-0.002270834520459175,0.001719159074127674,-0.038820698857307434,-0.029007932171225548,-9.597421646118164,-0.03167542442679405,0.22294874489307404,0.4385570287704468,0.00301682623103261,0.006248104851692915,-1.649046778678894,-3.685054302215576,-3.671444892883301,-44.64276123046875,-0.03232773765921593,-0.29058581590652466,-0.5254561901092529,0.0,0.2923785448074341,265,70,532.7119140625,0.5254561901092529,1707,1704,1705,1705,0.004373644939070045,-0.0021117339379588622,0.6999831510898832,0.7954224231046186
1729774204799880443,-0.0032576280646026134,-0.02757086418569088,-0.0014766373205929995,-0.10346413403749466,-0.04457023739814758,-9.598618507385254,-0.028181733563542366,0.21543915569782257,0.4300968050956726,0.002843684982508421,0.0026119137182831764,-1.649065375328064,-3.6876232624053955,-3.7054808139801025,-44.70869827270508,-0.02935067005455494,-0.27609938383102417,-0.49441179633140564,0.0,0.2808592617511749,265,70,532.7626953125,0.5016636848449707,1708,1701,1707,1702,0.0018283375239483818,-0.0019905700149923304,0.6999947819897758,0.7954061368337738
1729774204841409675,-0.01177973672747612,-0.007064526434987783,-0.0001450656563974917,-0.050791725516319275,-0.0397818461060524,-9.609393119812012,-0.024441005662083626,0.22094963490962982,0.42882639169692993,0.002208380727097392,0.001211028196848929,-1.6490416526794434,-3.6889612674713135,-3.7216796875,-44.73832321166992,-0.028162691742181778,-0.2711201310157776,-0.48019275069236755,0.0,0.2725788950920105,265,70,532.8074340820312,0.48019275069236755,1695,1711,1696,1710,0.0008477195305848168,-0.001545864118876136,0.6999977797648528,0.795401939130465
1729774204913593147,-0.0016532436711713672,-0.034741103649139404,-0.0025351601652801037,-0.041206683963537216,-0.017865855246782303,-9.595257759094238,-0.027657996863126755,0.2153835892677307,0.42934125661849976,0.001734195975586772,-0.002663065679371357,-1.6489553451538086,-3.6895737648010254,-3.7423715591430664,-44.783782958984375,-0.027159012854099274,-0.2639581561088562,-0.4588734209537506,0.0,0.26535171270370483,265,70,532.8529052734375,0.4588734209537506,1712,1697,1711,1697,-0.0018641437721654123,-0.001213932269870561,0.6999964652313901,0.7954037798382226
1729774205012144225,-0.001653263228945434,0.04435480013489723,-0.0009372859494760633,-0.04360088333487511,-0.04420207440853119,-9.619199752807617,-0.028610536828637123,0.2150493860244751,0.4298977851867676,0.0016427569789811969,-0.0016695446101948619,-1.6488863229751587,-3.6904354095458984,-3.762024402618408,-44.82404327392578,-0.026575110852718353,-0.2574983537197113,-0.4382593035697937,0.0,0.2588660418987274,265,70,532.8931884765625,0.4382593035697937,1704,1703,1704,1703,-0.0011686806842101873,-0.0011499277654328673,0.6999980798913612,0.7954015188704867
1729774205112105804,0.0223152507096529,0.05074640363454819,0.03022163175046444,-0.06754294037818909,-0.010683256201446056,-9.627578735351562,-0.030798226594924927,0.21850916743278503,0.42813944816589355,0.0018695226171985269,0.0032106207218021154,-1.648619532585144,-3.691941499710083,-3.7844467163085938,-44.86568832397461,-0.026471653953194618,-0.24899747967720032,-0.41949740052223206,0.0,0.2504006624221802,265,69,532.934814453125,0.41949740052223206,1756,1759,1650,1582,0.0022153244920798663,-0.0012899632058805393,0.6899952379055396,0.8093138532375072
1729774205217235100,0.25480973720550537,0.17990922927856445,0.273101806640625,-0.06874001026153564,0.016850056126713753,-8.93565559387207,-0.031623873859643936,0.22187276184558868,0.42465484142303467,0.014056016691029072,0.013666031882166862,-1.6357156038284302,-3.693444013595581,-3.805403470993042,-44.90202713012695,-0.019595574587583542,-0.23580874502658844,-0.3784952759742737,0.0,0.23662154376506805,266,66,532.9711303710938,0.3784952759742737,1751,1757,1556,1542,0.009019300294716693,-0.009275799297892084,0.6598731785499233,0.8501463638150266
1729774205316128671,0.2276449352502823,0.17938804626464844,0.5993448495864868,0.006038319319486618,-0.0670585185289383,-8.37696361541748,-0.031623873859643936,0.22187276184558868,0.42465484142303467,0.04266628623008728,0.03165389224886894,-1.5919792652130127,-3.694580078125,-3.820422887802124,-44.93083190917969,0.0019089352572336793,-0.20825643837451935,-0.2607613503932953,0.0,0.20826518535614014,268,63,532.9999389648438,0.2607613503932953,1709,1713,1534,1554,0.019938622081001976,-0.02685814456177472,0.6291113505733383,0.8903868740644362
1729774205416644607,0.036163151264190674,0.08458010107278824,0.8432905673980713,0.027586141601204872,-0.07304402440786362,-7.881361961364746,-0.023650119081139565,0.23854443430900574,0.41780397295951843,0.05886863172054291,0.041507281363010406,-1.5190390348434448,-3.6931040287017822,-3.832643747329712,-44.943878173828125,0.035459477454423904,-0.17481940984725952,-0.10225272923707962,0.0,0.1783793717622757,272,61,533.0130004882812,0.10225272923707962,1671,1671,1557,1574,0.02531217197243015,-0.03585821647615762,0.6084188378585816,0.9167296124847852
1729774205515528297,-0.08154910057783127,0.02279532141983509,0.9900305271148682,-0.019100774079561234,-0.09818314760923386,-7.449208736419678,-0.0050289868377149105,0.2404787540435791,0.41598835587501526,0.05993793159723282,0.04107486084103584,-1.426232099533081,-3.687737226486206,-3.8443236351013184,-44.938743591308594,0.07257632911205292,-0.13579051196575165,0.11825428903102875,0.0,0.15396878123283386,278,59,533.0078735351562,-0.11825428903102875,1626,1635,1553,1548,0.024227354048426904,-0.0353123997838272,0.5884437693928956,0.9416635832585555
1729774205714193961,-0.024556707590818405,-0.011290982365608215,1.060338020324707,0.003644116222858429,-0.04311652109026909,-6.8183369636535645,0.028598664328455925,0.23721197247505188,0.41596460342407227,0.054004594683647156,0.02923845686018467,-1.2214992046356201,-3.668694496154785,-3.8560426235198975,-44.86020278930664,0.1261715590953827,-0.06709100306034088,0.6569474935531616,0.0,0.14290019869804382,290,57,532.9293212890625,-0.6569474935531616,1606,1609,1584,1577,0.01666354593102077,-0.030754507748534773,0.5689257302057537,0.9655973422471011
1729774205812811884,0.050010498613119125,-0.0027690823189914227,1.0329073667526245,0.008432529866695404,-0.05628463253378868,-6.923681735992432,0.06447203457355499,0.23142662644386292,0.422927588224411,0.05817943066358566,0.023276306688785553,-1.1211549043655396,-3.6562623977661133,-3.8574728965759277,-44.783668518066406,0.1471342146396637,-0.03991220146417618,0.948445737361908,0.0,0.1524515002965927,295,61,532.852783203125,-0.948445737361908,1575,1578,1561,1547,0.014197265018146318,-0.035459827040786,0.6088029552591233,0.9162455135527221
1729774205910801027,0.09741505980491638,-0.00490098400041461,0.9910958409309387,-0.028677601367235184,-0.09339475631713867,-7.851434230804443,0.09213032573461533,0.21323014795780182,0.41794440150260925,0.06916755437850952,0.016505097970366478,-1.0200788974761963,-3.640200138092041,-3.857372283935547,-44.6722526550293,0.17430251836776733,-0.00567234493792057,1.1887900829315186,0.0,0.17439478635787964,301,66,532.7413940429688,-1.1887900829315186,1620,1621,1627,1624,0.010892870075272697,-0.04560798178775535,0.6583321785988977,0.85219542274799
1729774206009771545,0.08037065714597702,-0.006232248153537512,0.9357021450996399,0.021600645035505295,-0.16162948310375214,-8.611595153808594,0.09213032573461533,0.21323014795780182,0.41794440150260925,0.07940519601106644,0.008799238130450249,-0.9246094226837158,-3.622432231903076,-3.8549299240112305,-44.55113220214844,0.206752747297287,0.029129868373274803,1.332273244857788,0.0,0.2087947577238083,307,68,532.6202392578125,-1.332273244857788,1663,1663,1653,1654,0.005983404715569738,-0.053936721065193656,0.6778311212896213,0.8259877008488935
1729774206107328601,0.04228897765278816,-0.0040887692011892796,0.8891332149505615,-0.049955811351537704,-0.13388246297836304,-9.178915977478027,0.11955682188272476,0.21147143840789795,0.4095448851585388,0.08553702384233475,0.0007816218421794474,-0.8340531587600708,-3.598691940307617,-3.843127489089966,-44.4104118347168,0.25027626752853394,0.07532361894845963,1.4207754135131836,0.0,0.2613653540611267,312,71,532.4795532226562,-1.4207754135131836,1697,1692,1687,1682,0.0005549514514410718,-0.06065723790901232,0.7074039804228811,0.784977771829782
1729774206204994090,0.007401794195175171,-0.009149694815278053,0.8502510190010071,-0.029605094343423843,-0.16380997002124786,-9.552412033081055,0.1528337001800537,0.19534583389759064,0.40924373269081116,0.087290458381176,-0.0075821653008461,-0.7479832172393799,-3.5725743770599365,-3.8289501667022705,-44.274200439453125,0.29386264085769653,0.11879385262727737,1.4603089094161987,0.0,0.31696566939353943,317,72,532.3433227539062,-1.4603089094161987,1717,1714,1704,1702,-0.00545910670961757,-0.06276754170677741,0.7172380594070709,0.7709657254799365
1729774206409972012,0.0015421793796122074,-0.004355828743427992,0.8209561109542847,-0.06432101130485535,-0.2212708294391632,-9.970199584960938,0.1719827651977539,0.17512865364551544,0.41194257140159607,0.08655011653900146,-0.016695085912942886,-0.6584604978561401,-3.5395002365112305,-3.810699939727783,-44.123619079589844,0.34279707074165344,0.16534294188022614,1.4650380611419678,0.0,0.38058918714523315,322,73,532.1927490234375,-1.4650380611419678,1760,1728,1729,1712,-0.012186846566421638,-0.06309393923964222,0.7271661678062248,0.7566116275077908
1729774206423809010,-0.12362751364707947,0.14584580063819885,0.7999172806739807,-0.09065724909305573,-0.28112587332725525,-10.055194854736328,0.1719827651977539,0.17512865364551544,0.41194257140159607,0.08012709021568298,-0.017996205016970634,-0.5767937898635864,-3.504621982574463,-3.7909457683563232,-43.98480224609375,0.3843403160572052,0.20542080700397491,1.4511340856552124,0.0,0.43579259514808655,326,74,532.053955078125,-1.4511340856552124,1767,1752,1724,1739,-0.013316472899044893,-0.05922102797396488,0.7375062992241056,0.7414259621530913
1729774206523072975,-0.3129735291004181,0.10669712722301483,0.7948586344718933,-0.006860174238681793,-0.2739432454109192,-10.420310974121094,0.17999769747257233,0.15101201832294464,0.41767099499702454,0.056813765317201614,-0.007330323103815317,-0.4957364797592163,-3.4642834663391113,-3.7646682262420654,-43.835166931152344,0.41319239139556885,0.2425791174173355,1.4085233211517334,0.0,0.4791373312473297,331,76,531.904296875,-1.4085233211517334,1761,1787,1745,1747,-0.005570995666943903,-0.043154077349576214,0.7587533786517103,0.7093991726356711
1729774206621069733,-0.23308219015598297,-0.023527808487415314,0.7916614413261414,-0.0655180960893631,-0.19254040718078613,-10.342499732971191,0.19453179836273193,0.11473622918128967,0.42685067653656006,0.02633354440331459,-0.007252071984112263,-0.41608867049217224,-3.425107002258301,-3.7384984493255615,-43.702430725097656,0.4234149754047394,0.2616730332374573,1.3407628536224365,0.0,0.49774792790412903,335,73,531.7715454101562,-1.3407628536224365,1733,1759,1741,1724,-0.005293966144255744,-0.019220760273623665,0.7297277138062986,0.7528726926877894
1729774206720699843,-0.0032506855204701424,-0.07173112779855728,0.7884659171104431,-0.12417607009410858,-0.2368331253528595,-9.783452987670898,0.2016475945711136,0.0972614511847496,0.4265174865722656,0.013232727535068989,-0.014367575757205486,-0.33712974190711975,-3.3818817138671875,-3.710099458694458,-43.564266204833984,0.4255009889602661,0.26132437586784363,1.3165708780288696,0.0,0.49934107065200806,340,72,531.6333618164062,-1.3165708780288696,1734,1740,1716,1698,-0.01034429864579208,-0.009526302444844488,0.7198626570723445,0.7671918954177217
1729774206819948399,0.09342169016599655,-0.03737843781709671,0.7826067209243774,-0.1169934868812561,-0.21648243069648743,-9.692471504211426,0.20981314778327942,0.08202408254146576,0.4261609613895416,0.017357129603624344,-0.021333087235689163,-0.25851619243621826,-3.3416309356689453,-3.6849453449249268,-43.437156677246094,0.42808017134666443,0.2553226053714752,1.3242332935333252,0.0,0.49843981862068176,344,72,531.5062866210938,-1.3242332935333252,1741,1730,1723,1716,-0.015358657792082252,-0.012493662346401542,0.7197277402129223,0.767386247891858
1729774206919494266,0.0582641139626503,0.007638781331479549,0.7823892831802368,-0.12727408111095428,-0.17769792675971985,-9.734289169311523,0.21899768710136414,0.06538264453411102,0.426822692155838,0.023956773802638054,-0.02417859062552452,-0.17985594272613525,-3.2983462810516357,-3.649729013442993,-43.294734954833984,0.43562090396881104,0.25708824396133423,1.3366847038269043,0.0,0.5058259963989258,349,72,531.3638305664062,-1.3366847038269043,1742,1735,1708,1707,-0.01740688911115184,-0.01724218609696315,0.7195830092700006,0.7675946943725099
1729774207020107301,-0.011776835657656193,0.025748681277036667,0.7845196723937988,-0.1619900017976761,-0.18248635530471802,-9.741469383239746,0.21678580343723297,0.04548799246549606,0.427102655172348,0.024383030831813812,-0.024059351533651352,-0.10115154832601547,-3.257256031036377,-3.618605136871338,-43.16301727294922,0.4452849328517914,0.2631981074810028,1.345628023147583,0.0,0.5172541737556458,353,72,531.2321166992188,-1.345628023147583,1739,1736,1723,1722,-0.017321061935003313,-0.017548962316243248,0.7195776641440913,0.7676023917444607
1729774207122576003,-0.03574514761567116,0.022819064557552338,0.7829219102859497,-0.17635518312454224,-0.19206315279006958,-9.78815746307373,0.21678580343723297,0.04548799246549606,0.427102655172348,0.019724201411008835,-0.023277686908841133,-0.022695541381835938,-3.2115635871887207,-3.5863685607910156,-43.02029037475586,0.45307496190071106,0.26881131529808044,1.3530198335647583,0.0,0.526817262172699,358,72,531.0894165039062,-1.3530198335647583,1736,1743,1710,1707,-0.016758421051635993,-0.014196657100776146,0.7196649291517678,0.7674767160732328
1729774207222608817,-0.018701042979955673,0.008972005918622017,0.7815903425216675,-0.15600451827049255,-0.1573471873998642,-9.782172203063965,0.22626245021820068,0.02044067718088627,0.41976791620254517,0.014918054454028606,-0.023004336282610893,0.055608369410037994,-3.168647289276123,-3.5577187538146973,-42.888572692871094,0.4579199254512787,0.27016520500183105,1.358175277709961,0.0,0.5316765308380127,2,72,530.9577026367188,-1.358175277709961,1738,1739,1724,1721,-0.01656166129617647,-0.010737758977831299,0.7197294018638148,0.7673838544635793
1729774207322082661,-0.0051191276870667934,0.004709924571216106,0.7861177325248718,-0.1572016179561615,-0.12502548098564148,-9.780975341796875,0.2237597107887268,-0.018395856022834778,0.43065300583839417,0.012208647094666958,-0.023302458226680756,0.13401398062705994,-3.1215381622314453,-3.5190653800964355,-42.74293518066406,0.46267640590667725,0.27375566959381104,1.3661575317382812,0.0,0.5375980138778687,7,72,530.8120727539062,-1.3661575317382812,1740,1742,1711,1709,-0.016776251563507046,-0.008787621145268517,0.719750884055091,0.7673529111572476
1729774207422795347,-0.010977662168443203,0.0063084568828344345,0.7871829867362976,-0.18593204021453857,-0.08791536837816238,-9.780975341796875,0.22314414381980896,-0.020910758525133133,0.42573899030685425,0.009606319479644299,-0.023594705387949944,0.21262536942958832,-3.0774874687194824,-3.4854843616485596,-42.608699798583984,0.4669814705848694,0.27554893493652344,1.370724081993103,0.0,0.5422166585922241,11,72,530.6777954101562,-1.370724081993103,1740,1742,1712,1709,-0.01698661167384029,-0.006914518509931321,0.7197663818612383,0.7673305872425803
1729774207524093779,-0.008847481571137905,0.012699199840426445,0.7853187322616577,-0.18593204021453857,-0.09030956029891968,-9.770200729370117,0.21701768040657043,-0.03066835179924965,0.4203992187976837,0.006810168270021677,-0.023260775953531265,0.2912461459636688,-3.029231071472168,-3.4514291286468506,-42.46376419067383,0.47130268812179565,0.27624669671058655,1.374022126197815,0.0,0.5462952256202698,16,72,530.5328979492188,-1.374022126197815,1739,1743,1711,1708,-0.016746248460024947,-0.004901956818669373,0.7197885342111687,0.7672986768503081
1729774207625335639,-0.002722489647567272,0.014563200995326042,0.7869165539741516,-0.17635518312454224,-0.07594436407089233,-9.758228302001953,0.21218553185462952,-0.05177627131342888,0.4178639054298401,0.004294632002711296,-0.022558163851499557,0.3698323965072632,-2.9842336177825928,-3.4216842651367188,-42.33021545410156,0.47515490651130676,0.275033175945282,1.3781671524047852,0.0,0.5490131378173828,20,72,530.3993530273438,-1.3781671524047852,1738,1740,1725,1723,-0.016240500505339678,-0.003091338824039633,0.71981017620454,0.7672675006054537
1729774207720975145,0.002599247731268406,0.010057063773274422,0.7848291993141174,-0.20894193649291992,-0.06878199428319931,-9.797567367553711,0.20357006788253784,-0.08101221174001694,0.4254196286201477,0.002786092460155487,-0.021645870059728622,0.44842419028282166,-2.9348740577697754,-3.3838391304016113,-42.18045425415039,0.47834762930870056,0.276629775762558,1.3849588632583618,0.0,0.5525761842727661,25,73,530.2495727539062,-1.3849588632583618,1742,1743,1712,1710,-0.015800251224815022,-0.0020333684107025087,0.7298261556522478,0.7527287056187046
1729774207922071857,-0.0032595761585980654,0.014318054541945457,0.7853618860244751,-0.18260568380355835,-0.04364287480711937,-9.82150936126709,0.19778530299663544,-0.10718244314193726,0.42059388756752014,-0.0007693109218962491,-0.019455375149846077,0.5993356704711914,-2.8390820026397705,-3.3177592754364014,-41.89504623413086,0.4831409156322479,0.2732706367969513,1.3886057138442993,0.0,0.5550693273544312,34,73,529.9641723632812,-1.3886057138442993,1740,1743,1728,1724,-0.014201527912595036,0.0005614906354607304,0.7298616316352121,0.7526768108492062
1729774208016372066,-0.048000823706388474,0.0018002630677074194,0.6644542813301086,-0.17662020027637482,-0.022095046937465668,-9.890941619873047,0.19005750119686127,-0.11719091981649399,0.42667824029922485,-0.004561873152852058,-0.018572721630334854,0.6729727387428284,-2.792733907699585,-3.28887939453125,-41.759742736816406,0.48551812767982483,0.2699764370918274,1.3826512098312378,0.0,0.55553138256073,38,73,529.828857421875,-1.3826512098312378,1702,1694,1750,1759,-0.013557307335645802,0.0033295815056410463,0.7298665037558609,0.7526696836176731
1729774208118307995,-0.06931670010089874,0.0015429242048412561,0.3440949022769928,-0.1875392496585846,0.012245150282979012,-9.777824401855469,0.18146935105323792,-0.12563978135585785,0.42735928297042847,-0.012071836739778519,-0.018307946622371674,0.7208205461502075,-2.746659278869629,-3.251939296722412,-41.611087799072266,0.4875379204750061,0.2664279639720917,1.382764220237732,0.0,0.5555871725082397,41,72,529.6802368164062,-1.382764220237732,1663,1653,1801,1804,-0.013180985203544424,0.008690054774170192,0.7198268851446755,0.7672434299516427
1729774208319437672,0.025491900742053986,0.01113039255142212,-0.07189087569713593,-0.1959189474582672,0.04336977377533913,-9.79458236694336,0.1750827580690384,-0.14166073501110077,0.42353689670562744,-0.015416073612868786,-0.01746760867536068,0.735334038734436,-2.684835910797119,-3.20733380317688,-41.417701721191406,0.4946790039539337,0.2569243311882019,1.388787031173706,0.0,0.5568581819534302,42,72,529.5435791015625,-1.3865901231765747,1683,1683,1776,1774,-0.012576038695554341,0.011097440135008789,0.7198046193747146,0.7672755055597795
1729774208359780389,0.0675697848200798,0.01192949153482914,-0.19013524055480957,-0.1791594922542572,0.014639364555478096,-9.705998420715332,0.17358475923538208,-0.13934603333473206,0.4210687577724457,-0.01133253425359726,-0.016759149730205536,0.7250121831893921,-2.654792547225952,-3.1881680488586426,-41.327083587646484,0.49748432636260986,0.25274065136909485,1.3931310176849365,0.0,0.5580040216445923,41,72,529.3961791992188,-1.3931310176849365,1698,1699,1744,1750,-0.012066022958404919,0.008158104202429848,0.7198526629983316,0.7672062935756513
1729774208432522535,0.06756972521543503,0.001010666135698557,-0.26417115330696106,-0.13726097345352173,0.00027413759380578995,-9.716772079467773,0.17533108592033386,-0.13773387670516968,0.42664140462875366,-0.003468636656180024,-0.01633618026971817,0.7005565166473389,-2.608952045440674,-3.1610794067382812,-41.19110870361328,0.49899348616600037,0.24852155148983002,1.4012200832366943,0.0,0.5574562549591064,40,72,529.26025390625,-1.4012200832366943,1727,1723,1735,1736,-0.011761526643265942,0.0024970801486040735,0.7198995979174813,0.7671386740014943
1729774208529628682,0.038275111466646194,0.0004779668524861336,-0.26869848370552063,-0.19711601734161377,-0.021273665130138397,-9.769444465637207,0.1801312416791916,-0.12801843881607056,0.42261189222335815,0.002406458370387554,-0.016453370451927185,0.6747271418571472,-2.56280255317688,-3.128354787826538,-41.03902816772461,0.49552613496780396,0.24887748062610626,1.4114868640899658,0.0,0.5545143485069275,38,73,529.108154296875,-1.4114868640899658,1731,1730,1719,1726,-0.012010418515921068,-0.0017564751373506345,0.7298990783952013,0.7526220300796517
1729774208631211617,-0.010460857301950455,-0.006179878022521734,-0.23141427338123322,-0.15521752834320068,-0.03324468433856964,-9.80894947052002,0.181841641664505,-0.12430501729249954,0.42669934034347534,0.004315057769417763,-0.01678377017378807,0.6495540142059326,-2.519507884979248,-3.099735736846924,-40.89917755126953,0.49103647470474243,0.25138232111930847,1.416461706161499,0.0,0.551642894744873,37,73,528.9683227539062,-1.416461706161499,1743,1742,1727,1725,-0.012251577006750234,-0.0031495387397152603,0.7298903885286986,0.7526347427486797
1729774208730423347,-0.012324987910687923,-0.002185491845011711,-0.1818794459104538,-0.1851450502872467,0.0026683607138693333,-9.813735961914062,0.1847001314163208,-0.11589210480451584,0.4285181760787964,0.0031917449086904526,-0.01719868741929531,0.6287834644317627,-2.471829652786255,-3.0702109336853027,-40.74870300292969,0.4873557984828949,0.253827840089798,1.4177131652832031,0.0,0.5494945645332336,36,73,528.8178100585938,-1.4177131652832031,1736,1736,1718,1720,-0.012554422872456747,-0.0023296252393049223,0.7298883197534975,0.7526377691971784
1729774208831119310,-0.011792358942329884,-0.0008538393303751945,-0.13660572469234467,-0.18873634934425354,-0.04401858523488045,-9.759867668151855,0.18755745887756348,-0.11576109379529953,0.42580917477607727,0.0018654820742085576,-0.017497317865490913,0.6127797961235046,-2.4235990047454834,-3.0417819023132324,-40.599082946777344,0.4848636984825134,0.2557753026485443,1.4192442893981934,0.0,0.5481913685798645,35,73,528.668212890625,-1.4192442893981934,1734,1738,1719,1719,-0.012772390294260003,-0.0013615926677576875,0.7298869858488902,0.752639720585065
1729774208931500269,-0.00941979605704546,-0.009371757507324219,-0.0971716046333313,-0.17145562171936035,-0.00624085683375597,-9.846983909606934,0.19023051857948303,-0.11401484906673431,0.4237520396709442,0.0013489581178873777,-0.017683492973446846,0.6010202169418335,-2.3893520832061768,-3.0112831592559814,-40.456912994384766,0.47829490900039673,0.25750526785850525,1.4230632781982422,0.0,0.5432080626487732,34,73,528.5260620117188,-1.4230632781982422,1734,1736,1722,1724,-0.012908277096952993,-0.0009845851645376407,0.7298852012299208,0.7526423313229978
1729774209031574257,-0.021936703473329544,-0.02242121659219265,-0.0646810382604599,-0.1774410903453827,-0.018211860209703445,-9.824237823486328,0.1934078186750412,-0.10859434306621552,0.42574402689933777,-0.00019533655722625554,-0.01891421340405941,0.5930942296981812,-2.3526456356048584,-2.9824721813201904,-40.31623840332031,0.4737347662448883,0.25904709100723267,1.422072172164917,0.0,0.5399351716041565,34,73,528.3853759765625,-1.422072172164917,1741,1738,1734,1730,-0.01380655254073312,0.0001425701800059129,0.7298694121421199,0.7526654290292297
1729774209337849552,0.001223806175403297,-0.006440652534365654,-0.030054692178964615,-0.18005545437335968,-0.03405899181962013,-9.830755233764648,0.1936299055814743,-0.11164510250091553,0.42534682154655457,-0.0032926059793680906,-0.022029468789696693,0.5825935006141663,-2.2540793418884277,-2.9144325256347656,-39.96881103515625,0.4756063222885132,0.2586022615432739,1.4185911417007446,0.0,0.5408015847206116,33,73,528.096435546875,-1.4187231063842773,1737,1737,1734,1729,-0.016080211528440524,0.00240301481546697,0.7298189174836436,0.7527392933609449
1729774209380037164,-0.0003741096006706357,0.0020814798772335052,-0.020733632147312164,-0.19801200926303864,-0.0017372574657201767,-9.83434772491455,0.19526968896389008,-0.11050234735012054,0.42307451367378235,-0.0028942341450601816,-0.021983491256833076,0.5808978080749512,-2.229700803756714,-2.8947548866271973,-39.87451934814453,0.4758002758026123,0.25906190276145935,1.419127106666565,0.0,0.5417554974555969,33,73,527.9436645507812,-1.419127106666565,1729,1731,1726,1729,-0.016046656056301557,0.002112277469161156,0.7298205554198265,0.7527368974551255
1729774209447975400,-0.004102526698261499,-0.005375389941036701,-0.012477821670472622,-0.15611347556114197,-0.018496669828891754,-9.813996315002441,0.1949729174375534,-0.11031392216682434,0.423596054315567,-0.0030295569449663162,-0.02211560122668743,0.5791703462600708,-2.1910483837127686,-2.8664987087249756,-39.734336853027344,0.4769454598426819,0.2595120370388031,1.4190549850463867,0.0,0.5429764986038208,33,73,527.803466796875,-1.4190549850463867,1737,1735,1735,1735,-0.01614307289138772,0.0022110323687948717,0.7298181366158883,0.7527404355800894
1729774209548422654,-0.006499371025711298,-0.0029785363003611565,-0.010080982930958271,-0.17646414041519165,-0.007722758688032627,-9.818784713745117,0.19473575055599213,-0.11063908040523529,0.42435896396636963,-0.003650943050161004,-0.022598370909690857,0.5781673192977905,-2.146772861480713,-2.837137222290039,-39.583885192871094,0.4801703691482544,0.2597705125808716,1.4181790351867676,0.0,0.5459343194961548,33,73,527.6530151367188,-1.4181790351867676,1729,1730,1728,1727,-0.016495406683865548,0.002664501998508872,0.7298087434303825,0.7527541754112123
1729774209645177064,-0.0006404131418094039,0.003945682197809219,-0.004754662048071623,-0.1620989590883255,0.011430846527218819,-9.833150863647461,0.19543048739433289,-0.10691390931606293,0.42352810502052307,-0.0038021481595933437,-0.02273498848080635,0.577332079410553,-2.104055643081665,-2.8109757900238037,-39.44601058959961,0.4839971363544464,0.2598001956939697,1.4162719249725342,0.0,0.5493171811103821,33,73,527.51513671875,-1.4162719249725342,1734,1736,1735,1733,-0.016595111892028443,0.0027748441842913446,0.729806071844462,0.7527580832222087
1729774209744102296,0.0062770056538283825,0.0012780805118381977,-0.002355053788051009,-0.18328890204429626,-0.0011831298470497131,-9.836099624633789,0.19892719388008118,-0.10766858607530594,0.4200761318206787,-0.0033902728464454412,-0.02246669866144657,0.5766946077346802,-2.062779664993286,-2.7841715812683105,-39.2931022644043,0.48509863018989563,0.25973254442214966,1.416832685470581,0.0,0.5502560138702393,33,73,527.3622436523438,-1.416832685470581,1729,1731,1727,1729,-0.016399310342661278,0.002474269858481361,0.729811578840013,0.752750027952398
1729774209841577161,0.008141223341226578,-0.007244030479341745,-0.001556098461151123,-0.15336140990257263,0.02635018527507782,-9.821734428405762,0.1958577036857605,-0.10279496014118195,0.4235392212867737,-0.0028440579771995544,-0.022712016478180885,0.5764297246932983,-2.0225770473480225,-2.7598862648010254,-39.15333938598633,0.4868147373199463,0.2589265704154968,1.4142017364501953,0.0,0.5513905882835388,33,73,527.2224731445312,-1.4142017364501953,1737,1735,1735,1735,-0.016578346659471003,0.002075624068884444,0.7298087764659746,0.7527541270889322
1729774209941204669,0.004679117351770401,-0.007776658516377211,0.0008407383575104177,-0.19166862964630127,0.009590783156454563,-9.86961841583252,0.1958577036857605,-0.10279496014118195,0.4235392212867737,-0.0023488339502364397,-0.02352195978164673,0.5763001441955566,-1.9767203330993652,-2.7337708473205566,-39.00347900390625,0.4900594651699066,0.25885456800460815,1.412490725517273,0.0,0.5542237162590027,33,73,527.0726318359375,-1.412490725517273,1729,1729,1728,1728,-0.01716944727901513,0.001714172886692023,0.729796048010297,0.7527727452477968
1729774210042328264,0.009472807869315147,-0.002184018027037382,-0.0007571625174023211,-0.1713179051876068,-0.0071686310693621635,-9.785821914672852,0.19820094108581543,-0.11457786709070206,0.42308247089385986,-0.0015824708389118314,-0.023911837488412857,0.5763989090919495,-1.9326348304748535,-2.7096853256225586,-38.86623001098633,0.49410563707351685,0.2606886923313141,1.411276936531067,0.0,0.5586581826210022,33,73,526.9353637695312,-1.411276936531067,1737,1733,1735,1732,-0.017453977961378438,0.0011548729872703932,0.7297903979374536,0.7527810096002927
1729774210246279135,0.00014467164874076843,-0.006448819302022457,0.0029673201497644186,-0.17224285006523132,0.02704923041164875,-9.817699432373047,0.19235624372959137,-0.11027368158102036,0.42278528213500977,-0.0005062207346782088,-0.02356342226266861,0.5770529508590698,-1.8509715795516968,-2.6603097915649414,-38.576698303222656,0.4932335615158081,0.26291388273239136,1.4121307134628296,0.0,0.5589302778244019,33,73,526.6458129882812,-1.4121307134628296,1727,1729,1726,1732,-0.017199706502509,0.0003694385342210079,0.7297972551410404,0.7527709795701399
1729774210339184458,-0.0011869050795212388,-0.009910928085446358,0.00536416657269001,-0.19618487358093262,0.005501427222043276,-9.832064628601074,0.1962680220603943,-0.10723887383937836,0.4225470721721649,-0.0005448891897685826,-0.024585247039794922,0.577547013759613,-1.8052841424942017,-2.63434100151062,-38.427703857421875,0.49560683965682983,0.2644074261188507,1.4108027219772339,0.0,0.5617271661758423,33,73,526.496826171875,-1.4108027219772339,1736,1734,1735,1734,-0.01794542240654011,0.0003976488822480659,0.7297792842291546,0.7527972653908744
1729774210444435674,0.008933109231293201,0.001274358481168747,0.0032336381264030933,-0.15428635478019714,0.021063731983304024,-9.841641426086426,0.20367105305194855,-0.10835832357406616,0.41976818442344666,-0.0001984520349651575,-0.025038018822669983,0.5779606103897095,-1.7611428499221802,-2.6100759506225586,-38.29099655151367,0.499539315700531,0.26750877499580383,1.4105855226516724,0.0,0.566657304763794,33,73,526.360107421875,-1.4105855226516724,1728,1728,1729,1728,-0.018275844072502014,0.00014482457727635836,0.7297711782122389,0.7528091217157712
1729774210539456857,0.009459113702178001,0.006332500372081995,0.005104870069772005,-0.1635698527097702,0.0051857223734259605,-9.787127494812012,0.19722487032413483,-0.10938438773155212,0.4239097237586975,0.0006108543602749705,-0.024463588371872902,0.5784192085266113,-1.719848871231079,-2.5835890769958496,-38.13990783691406,0.4991167485713959,0.2706610858440399,1.4120036363601685,0.0,0.5677807331085205,33,73,526.2090454101562,-1.4120036363601685,1736,1733,1735,1733,-0.01785663828517896,-0.0004457902265922105,0.7297814342254989,0.7527941206578277
1729774210736289470,-0.004389326088130474,-0.00751594640314579,0.004039612598717213,-0.13364233076572418,0.020748043432831764,-9.88768482208252,0.19924414157867432,-0.11464095115661621,0.4253295958042145,0.00036536648985929787,-0.024553775787353516,0.5787085890769958,-1.6627540588378906,-2.5483036041259766,-37.94361114501953,0.5005367398262024,0.27571210265159607,1.4103118181228638,0.0,0.5698310136795044,33,73,526.0701904296875,-1.4112187623977661,1736,1735,1737,1735,-0.017922455326166976,-0.0002666371353154342,0.7297799082598256,0.7527963526416315
1729774210774778504,-0.009715653955936432,-0.0011243624612689018,0.0027080154977738857,-0.15758436918258667,0.014762528240680695,-9.829026222229004,0.19873133301734924,-0.10882604122161865,0.4261300265789032,0.00010882420610869303,-0.024862561374902725,0.578842043876648,-1.634242296218872,-2.531407117843628,-37.85202407836914,0.5017255544662476,0.27691277861595154,1.4091148376464844,0.0,0.5730699896812439,33,73,525.921142578125,-1.4091148376464844,1726,1730,1729,1729,-0.018147800000940562,-7.941711825389266e-05,0.7297743836611745,0.7528044332603895
1729774210846391405,0.0017359417397528887,0.0028703869320452213,-0.00048776104813441634,-0.16835825145244598,-0.03192440792918205,-9.785930633544922,0.19818639755249023,-0.11433793604373932,0.4229263663291931,3.895579357049428e-05,-0.02490130439400673,0.579007089138031,-1.5899287462234497,-2.5057613849639893,-37.71546936035156,0.5035829544067383,0.27942943572998047,1.4059219360351562,0.0,0.5759137272834778,33,73,525.7846069335938,-1.4059219360351562,1728,1728,1727,1727,-0.018176073650368583,-2.8428912992910247e-05,0.7297736837804261,0.7528054569441684
1729774210944695264,0.005193823948502541,0.0034012403339147568,-0.0007545713451690972,-0.18234512209892273,0.021349702030420303,-9.83007526397705,0.19816064834594727,-0.11429516971111298,0.4229753613471985,0.0005776736070401967,-0.02461054176092148,0.5791810750961304,-1.5469080209732056,-2.478529691696167,-37.566368103027344,0.5029421448707581,0.2822287380695343,1.406406283378601,0.0,0.5767181515693665,33,73,525.635498046875,-1.406406283378601,1727,1729,1726,1729,-0.01796388196701607,-0.0004215740082453992,0.7297788166424336,0.752797949314088
1729774211043891196,-0.0014640761073678732,-0.004854559898376465,-0.0007545605185441673,-0.176359623670578,-0.019351737573742867,-9.837257385253906,0.19088660180568695,-0.10907858610153198,0.42427751421928406,0.0006162310019135475,-0.024654529988765717,0.5792356133460999,-1.5051504373550415,-2.452897310256958,-37.429473876953125,0.5034406185150146,0.2850399911403656,1.4069682359695435,0.0,0.578532874584198,33,73,525.4985961914062,-1.4069682359695435,1735,1733,1735,1733,-0.017995983631844622,-0.00044971189054816043,0.7297780089399365,0.7527991307119181
1729774211144345170,0.0025306609459221363,0.0026022919919341803,0.0021749085281044245,-0.193119078874588,0.015364186838269234,-9.79775333404541,0.19581347703933716,-0.10638460516929626,0.4239419400691986,0.0005446836585178971,-0.024716198444366455,0.5794116258621216,-1.4575918912887573,-2.4245104789733887,-37.281890869140625,0.5055963397026062,0.28826773166656494,1.4063540697097778,0.0,0.5820016860961914,33,73,525.3510131835938,-1.4063540697097778,1727,1727,1727,1728,-0.018040987888884436,-0.00039749760639614187,0.7297769280757278,0.7528007116513762
1729774211344695508,0.001731714466586709,0.008727563545107841,0.0021749085281044245,-0.16438865661621094,0.01656128652393818,-9.790569305419922,0.19755028188228607,-0.10655621439218521,0.42394331097602844,0.0008787931292317808,-0.0235862098634243,0.5797185897827148,-1.367152452468872,-2.3678486347198486,-36.997920989990234,0.5067983269691467,0.2945062816143036,1.407187581062317,0.0,0.5861557126045227,33,73,525.0670166015625,-1.407187581062317,1736,1732,1734,1731,-0.017216336828655466,-0.0006413404685754547,0.7297966747174213,0.7527718285597981
1729774211537797410,-0.005725136958062649,0.0034012384712696075,-0.00022193726908881217,-0.16797995567321777,-0.015760427340865135,-9.832469940185547,0.19596219062805176,-0.11030606180429459,0.42649659514427185,0.0006359200342558324,-0.022829821333289146,0.5798356533050537,-1.3060717582702637,-2.328117847442627,-36.804752349853516,0.5073702931404114,0.29801011085510254,1.4074474573135376,0.0,0.5870883464813232,33,73,524.9305419921875,-1.4073524475097656,1733,1732,1733,1732,-0.016664321909116202,-0.00046410062265340876,0.7298096224262335,0.7527528896733484
1729774211576733648,-0.002795659238472581,0.002335974248126149,-0.00048825168050825596,-0.1955132782459259,-0.02533723972737789,-9.789372444152832,0.1977701336145401,-0.11094055324792862,0.42460861802101135,0.00018052027735393494,-0.022753216326236725,0.5798574686050415,-1.2760810852050781,-2.309234857559204,-36.71418762207031,0.5080627202987671,0.30020084977149963,1.4082772731781006,0.0,0.5901256203651428,33,72,524.7833251953125,-1.4082772731781006,1725,1726,1725,1727,-0.016380902246496555,-0.00012994095594009357,0.7198136211248983,0.767262537952935
